rfid	color	ccp_box	ccp_change_in_locomotor_activity	ccp_change_in_time_on_cs	ccp_post_test_time_on_cs	ccp_trial_4_cocaine_dist_mm	ccp_trial_4_saline_dist_mm	ccp_trial_3_cocaine_dist_mm	ccp_trial_3_saline_dist_mm	ccp_trial_2_cocaine_dist_mm	ccp_trial_2_saline_dist_mm	ccp_trial_1_cocaine_dist_mm	ccp_trial_1_saline_dist_mm	ccp_pre_test_time_on_cs	crf_ny_box	crf_ny_number_reinforcers	crf_ny_lever_presses	crf_ny_inactive_responses	crf_ny_active_responses	crf_ny_active_inactive_ratio	crf_ny_active_inactive_diff	pavca_ny_box	pavca_ny_latencyscore_d4d5	pavca_ny_responsebias_d4d5	pavca_ny_avglatmag_d4d5	pavca_ny_avglatlev_d4d5	pavca_ny_d5_prob_mag	pavca_ny_d4_prob_mag	pavca_ny_d3_prob_mag	pavca_ny_d2_prob_mag	pavca_ny_d1_prob_mag	pavca_ny_probmag_d4d5	pavca_ny_problever_d4d5	pavca_ny_magazinencs_d4d5	pavca_ny_magazinecs_d4d5	pavca_ny_levercs_d4d5	pavca_ny_d5_prob_diff	pavca_ny_d4_prob_diff	pavca_ny_d3_prob_diff	pavca_ny_d2_prob_diff	pavca_ny_d1_prob_diff	pavca_ny_d5_response_bias	pavca_ny_d4_response_bias	pavca_ny_d3_response_bias	pavca_ny_d2_response_bias	pavca_ny_d1_response_bias	pavca_ny_d5_latency_score	pavca_ny_d4_latency_score	pavca_ny_d3_latency_score	pavca_ny_d2_latency_score	pavca_ny_d1_latency_score	pavca_ny_d5_prob_lev	pavca_ny_d4_prob_lev	pavca_ny_d3_prob_lev	pavca_ny_d2_prob_lev	pavca_ny_d1_prob_lev	pavca_ny_d5_avg_lev_lat	pavca_ny_d4_avg_lev_lat	pavca_ny_d3_avg_lev_lat	pavca_ny_d2_avg_lev_lat	pavca_ny_d1_avg_lev_lat	pavca_ny_d5_avg_mag_lat	pavca_ny_d4_avg_mag_lat	pavca_ny_d3_avg_mag_lat	pavca_ny_d2_avg_mag_lat	pavca_ny_d1_avg_mag_lat	pavca_ny_d5_index	pavca_ny_d4_index	pavca_ny_d3_index	pavca_ny_d2_index	pavca_ny_d1_index	pavca_ny_d5_magazine_ncs	pavca_ny_d4_magazine_ncs	pavca_ny_d3_magazine_ncs	pavca_ny_d2_magazine_ncs	pavca_ny_d1_magazine_ncs	pavca_ny_d5_magazine_cs	pavca_ny_d4_magazine_cs	pavca_ny_d3_magazine_cs	pavca_ny_d2_magazine_cs	pavca_ny_d1_magazine_cs	pavca_ny_d5_lever_cs	pavca_ny_d4_lever_cs	pavca_ny_d3_lever_cs	pavca_ny_d2_lever_cs	pavca_ny_d1_lever_cs	pavca_ny_indexlearning	pavca_ny_probdiff_d4d5	pavca_ny_indexscore_d4d5
00077E61F3	BLACK	box9	-2772.78	-215.22	488.35	20228.32	26435.84	47040.64	41080.85	48179.45	23631.87	23393.05	17117.83	703.57	box9	57	15	14	67	4.785714286	53	box9	-0.334	-1	4.052	8	0.4	0.84	0.8	0.84	0.8	0.62	0	271.5	31	0	-0.4	-0.84	-0.8	-0.84	-0.76	-1	-1	-1	-1	-0.940298507	-0.1745	-0.4935	-0.5935	-0.7235	-0.478	0	0	0	0	0.04	8	8	8	8	7.888	6.604	4.052	3.252	2.212	4.064	-0.524833333	-0.777833333	-0.797833333	-0.8545	-0.726099502	247	296	303	430	534	14	48	41	73	65	0	0	0	0	2	0.36	-0.62	-0.651333333
00077E6207	BROWN	box13	5837.25	360.59	769.3	28548.53	9373.82	38166.68	21264.35	30872.92	8561.61	16591.79	8526.44	408.71	box13	19	0	16	24	1.5	8	box13	-0.51125	-1	3.952	8	0.72	0.76	0.64	0.44	0.44	0.74	0	181	60.5	0	-0.72	-0.76	-0.64	-0.44	-0.44	-1	-1	-1	-1	-1	-0.5165	-0.506	-0.504	-0.3415	-0.2795	0	0	0	0	0	8	8	8	8	8	3.868	3.952	3.968	5.268	5.764	-0.7455	-0.755333333	-0.714666667	-0.593833333	-0.573166667	153	209	199	162	161	59	62	52	35	28	0	0	0	0	0	-0.28	-0.74	-0.750416667
00077E6232	BLACKHOOD	box8	-3769.67	162.4	496.8	30173.24	10311.72	27361.56	10371.59	32209.66	24467.26	10092.94	15497.54	334.4	box8	7	0	11	12	1.090909091	1	box8	-0.35325	-0.75	3.604	7.784	0.4	0.8	0.4	0.4	0.32	0.6	0.08	116	40	3	-0.24	-0.8	-0.4	-0.4	-0.24	-0.5	-1	-1	-1	-0.5	-0.157	-0.5495	-0.2675	-0.2725	-0.138	0.16	0	0	0	0.08	7.568	8	8	8	7.728	6.312	3.604	5.86	5.82	6.624	-0.299	-0.783166667	-0.555833333	-0.5575	-0.292666667	87	145	111	145	218	18	62	20	24	18	6	0	0	0	6	0	-0.52	-0.541083333
00077E6239	BLACK	box1	-1767.01	847.11	1464.06	11068.6	17647.43	12689.55	15738.81	17074.85	14481.77	1934.8	11160.44	616.95		52	32	24	72	3	48	box1	0.0765	0.364341085	5.744	4.974	0.36	0.32	0.52	0.44	0.4	0.34	0.72	134.5	14	30	0.4	0.36	-0.04	-0.28	-0.24	0.395348837	0.333333333	-0.209302326	-0.555555556	-0.5	0.0615	0.0915	-0.1395	-0.2325	-0.186	0.76	0.68	0.48	0.16	0.16	4.936	5.012	6.188	7.552	7.564	5.428	5.744	5.072	5.692	6.076	0.285616279	0.261611111	-0.129600775	-0.356018519	-0.308666667	126	143	123	217	242	13	15	26	21	15	30	30	17	6	5	0.64	0.38	0.273613695
00077E62D2	BLACK	box9	-9057.97	-204.97	161.23	27184.56	11181.42	34001.36	14356.38	29742.66	16593.25	16470.31	7902.68	366.2	box9	2	0	6	2	0.333333333	-4	box9	-0.21875	-1	7.24	8	0.44	0.16	0.32	0.32	0.04	0.3	0	116.5	19.5	0	-0.44	-0.16	-0.32	-0.32	-0.04	-1	-1	-1	-1	-1	-0.3425	-0.095	-0.207	-0.2585	-0.023	0	0	0	0	0	8	8	8	8	8	5.26	7.24	6.344	5.932	7.816	-0.594166667	-0.418333333	-0.509	-0.526166667	-0.354333333	179	54	177	155	48	30	9	25	24	6	0	0	0	0	0	-0.4	-0.3	-0.50625
00077E633D	BLACKHOOD	box12	17.62	1000.27	1354.82	26501.32	6312.45	18273.94	18119.47	28882.06	11450.29	15437.92	8741.88	354.55	box12	8	0	4	12	3	8	box12	-0.34275	-1	5.472	8	0.6	0.52	0.24	0.04	0	0.56	0	216	35.5	0	-0.6	-0.52	-0.24	-0.04	0	-1	-1	-1	-1		-0.3695	-0.316	-0.1635	-0.0115	0	0	0	0	0	0	8	8	8	8	8	5.044	5.472	6.692	7.908	8	-0.6565	-0.612	-0.467833333	-0.3505		206	226	74	40	4	51	20	7	1	0	0	0	0	0	0	-0.6	-0.56	-0.63425
00077E6433	BLACK	box5	-3733.74	490.82	1158.12	19175.01	35650.89	16337.05	36969.04	27527.84	32726.76	19638.85	31486.21	667.3	box5	79	48	69	144	2.086956522	75	box5	-0.649	-0.985074627	2.412	7.936	0.88	0.92	0.88	0.92	0.84	0.9	0.02	419	68.5	0.5	-0.88	-0.88	-0.88	-0.92	-0.76	-1	-0.970149254	-1	-1	-0.918367347	-0.6155	-0.6825	-0.622	-0.6935	-0.603	0	0.04	0	0	0.08	8	7.872	8	8	7.848	3.076	2.412	3.024	2.452	3.024	-0.831833333	-0.844216418	-0.834	-0.871166667	-0.760455782	232	606	200	248	281	71	66	67	77	47	0	1	0	0	2	-0.12	-0.88	-0.838024876
00077E64BA	BLACK	box14	-3687.7	677.41	1263.19	976.71	5647.01	1376.64	9955.23	7685.98	14574.45	2725.99	5286.99	585.78	box14	80	80	45	108	2.4	63	box14	0.49725	0.684425393	6.652	3.096	0.28	0.4	0.64	0.72	0.88	0.34	0.96	251	11	59	0.64	0.6	0.28	0.24	-0.6	0.774647887	0.594202899	0.382352941	0.333333333	-0.694444444	0.591	0.4035	0.2805	0.071	-0.474	0.92	1	0.92	0.96	0.28	2.768	3.424	3.324	3.024	6.8	7.496	6.652	5.568	3.592	3.008	0.668549296	0.532567633	0.314284314	0.214777778	-0.589481481	197	305	477	405	579	8	14	21	33	61	63	55	47	66	11	1.24	0.62	0.600558464
00077E64FF	BLACK	box6	7633.14	436.3	705.84	52087.31	21646.99	59388.65	17269.03	44805.38	19317.05	33963.37	17636.31	269.54		43	50	21	48	2.285714286	27	box6	0.422	0.984126984	8	4.576	0.04	0	0.36	0.84	0.72	0.02	0.8	84	0.5	55.5	0.72	0.84	-0.08	-0.84	-0.68	0.968253968	1	-0.315789474	-1	-0.929824561	0.399	0.445	-0.181	-0.6305	-0.483	0.76	0.84	0.28	0	0.04	4.712	4.44	7.244	8	7.692	7.904	8	5.796	2.956	3.828	0.695751323	0.761666667	-0.192263158	-0.8235	-0.697608187	81	87	194	372	315	1	0	25	69	55	62	49	13	0	2	1.4	0.78	0.728708995
00077E6577	ALBINO	box11	-4650.88	474.94	1175.57	87181.51	17787.26	79166.52	15843.95	81922.45	13865.81	43467.61	16887	700.63	box11	73	37	24	84	3.5	60	box11	0.34175	0.863993711	6.804	4.546	0.04	0.16	0.32	0.76	0.68	0.1	0.78	142	3	35.5	0.6	0.76	0.56	-0.72	-0.68	0.916666667	0.811320755	0.65625	-0.935483871	-1	0.315	0.3685	0.2465	-0.5585	-0.524	0.64	0.92	0.88	0.04	0	5.236	3.856	4.164	7.896	8	7.756	6.804	6.136	3.428	3.808	0.610555556	0.646606918	0.487583333	-0.737994624	-0.734666667	148	136	232	266	316	1	5	11	30	46	23	48	53	1	0	1.28	0.68	0.628581237
00077E6593	BROWNHOOD	box3	206.8	584.92	1222.12	34509.66	15865.8	74175.99	17327.71	100363.18	17819.47	53031.74	19141.32	637.2	box3	60	0	36	115	3.194444444	79	box3	-0.7445	-1	2.148	8	1	0.96	0.88	0.88	0.6	0.98	0	279	82.5	0	-1	-0.96	-0.84	-0.88	-0.6	-1	-1	-0.973684211	-1	-1	-0.7575	-0.7315	-0.599	-0.7385	-0.3415	0	0	0.04	0	0	8	8	7.988	8	8	1.94	2.148	3.196	2.092	5.268	-0.919166667	-0.897166667	-0.80422807	-0.872833333	-0.647166667	321	237	138	259	195	86	79	75	62	34	0	0	1	0	0	-0.4	-0.98	-0.908166667
00077E6602	BLACK	box14	-8697.19	138	468.73	68489.95	14114.3	75944.12	22628.61	68661.21	32068.59	59341.77	22460.17	330.73	box14	33	33	5	39	7.8	34	box14	0.06325	0.088888889	4.236	3.8	0.8	0.84	0.84	0.88	0.36	0.82	0.84	180.5	47	57.5	0.08	-0.04	-0.48	-0.68	-0.32	0.309090909	-0.131313131	-0.684210526	-0.797101449	-0.875	0.158	-0.0315	-0.463	-0.458	-0.244	0.88	0.8	0.36	0.2	0.04	3.112	4.488	6.76	7.6	7.796	4.376	4.236	3.056	3.936	5.844	0.182363636	-0.067604377	-0.542403509	-0.645033816	-0.479666667	106	255	376	332	193	38	56	80	62	15	72	43	15	7	1	0.4	0.02	0.05737963
00077E77C3	BLACKHOOD	box10	807.87	112.27	736.63	11859.31	12551.9	9663.19	9707.38	14171.21	13717.79	15805.28	14911.27	624.36																																																																											
00077E661C	BLACK	box1	4210.64	377.48	933.6	67986.53	8411.73	13995.31	14831.55	17261.42	16710.52	14381.22	14395.22	556.12	box1	14	0	9	18	2	9	box1	-0.53225	-1	3.492	8	0.68	0.84	0.72	0.72	0.4	0.76	0	174.5	37	0	-0.68	-0.84	-0.72	-0.72	-0.4	-1	-1	-1	-1	-1	-0.501	-0.5635	-0.5155	-0.484	-0.181	0	0	0	0	0	8	8	8	8	8	3.992	3.492	3.876	4.128	6.552	-0.727	-0.801166667	-0.745166667	-0.734666667	-0.527	125	224	175	187	129	38	36	48	36	16	0	0	0	0	0	-0.28	-0.76	-0.764083333
00077E664E	BLACK	box1	-4683.72	-553.36	277.94	8950.7	3651.26	9311.67	6516.58	24761.47	5298.44	7929.31	9890.86	831.3	box1	8	0	5	9	1.8	4	box1	-0.72175	-1	2.552	8	0.92	0.92	0.76	0.52	0.32	0.92	0	290.5	74	0	-0.92	-0.92	-0.76	-0.48	-0.32	-1	-1	-1	-0.933333333	-1	-0.7625	-0.681	-0.5305	-0.252	-0.163	0	0	0	0.04	0	8	8	8	7.836	8	1.9	2.552	3.756	5.82	6.696	-0.894166667	-0.867	-0.7635	-0.555111111	-0.494333333	283	298	414	211	108	74	74	60	29	13	0	0	0	1	0	-0.6	-0.92	-0.880583333
00077E6659	BLACKHOOD	box11	-2719.93	269.44	818.85	60265.96	30662.49	83114.16	35141.16	65505.28	22812.02	33426.9	21884.37	549.41	box11	58	57	16	67	4.1875	51	box11	0.39725	0.456899741	4.432	2.296	0.48	0.84	0.8	1	0.76	0.66	0.96	194.5	28	76	0.52	0.08	-0.2	-1	-0.76	0.698113208	0.215686275	-0.186046512	-1	-1	0.609	0.1855	-0.28	-0.8035	-0.5865	1	0.92	0.6	0	0	1.644	2.948	5.592	8	8	6.516	4.432	3.352	1.572	3.308	0.609037736	0.160395425	-0.222015504	-0.9345	-0.782166667	180	209	116	446	354	16	40	51	106	52	90	62	35	0	0	1.28	0.3	0.38471658
00077E668D	BROWNHOOD	box2	-5954.99	1195.59	1337.43	26102.08	5793.72	31601.39	10477.01	49888.58	11423.42	22366.32	11773.02	141.84	box2	23	0	26	51	1.961538462	25	box2	-0.67375	-1	2.14	8	0.92	0.92	1	0.88	0.64	0.92	0	202.5	102	0	-0.92	-0.92	-1	-0.88	-0.64	-1	-1	-1	-1	-1	-0.615	-0.7325	-0.7835	-0.724	-0.4705	0	0	0	0	0	8	8	8	8	8	3.08	2.14	1.732	2.208	4.236	-0.845	-0.884166667	-0.927833333	-0.868	-0.7035	236	169	215	212	282	96	108	104	95	64	0	0	0	0	0	-0.28	-0.92	-0.864583333
00077E66BC	BROWNHOOD	box4	-2673.62	-163.13	241.81	28715.07	15366.7	25273.12	21172.93	30603.83	11033.38	17486.45	8989.33	404.94	box4	3	0	5	3	0.6	-2	box4			3.312			0.88	0.6	0.48	0.52							-0.88	-0.6	-0.48	-0.48		-1	-1	-1	-0.888888889		-0.586	-0.3415	-0.3465	-0.294		0	0	0	0.04		8	8	8	7.784		3.312	5.268	5.228	5.432		-0.822	-0.647166667	-0.608833333	-0.554296296		288	277	169	119		69	50	39	17		0	0	0	1			
00077E670C	BROWNHOOD	box15	321.25	962.02	1253.08	46933	19630.12	73768.52	27216.95	76049.96	22843.35	35025.88	17880.91	291.06	box15	42	61	25	44	1.76	19	box15	0.3145	0.7861026	6.112	4.092	0.12	0.48	0.24	0.24	0.36	0.3	0.78	178.5	8	101	0.88	0.08	-0.08	-0.16	-0.32	0.960264901	0.611940299	0	-0.375	-0.764705882	0.5695	0.0595	-0.098	-0.0735	-0.2035	1	0.56	0.16	0.08	0.04	2.548	5.636	7.524	7.632	7.924	7.104	6.112	6.74	7.044	6.296	0.803254967	0.2504801	-0.059333333	-0.202833333	-0.429401961	127	230	213	123	133	3	13	9	11	15	148	54	9	5	2	1.2	0.48	0.526867533
00077E6712	BROWNHOOD	box4	1636.67	196.6	872.27	30323.02	19555.71	30341.54	17465.69	30002.06	20736.46	25192.58	15312.96	675.67	box4	8	0	24	12	0.5	-12	box4	-0.23625	-1	6.088	8	0.4	0.44	0.32	0.28	0.08	0.42	0	146	23	0	-0.4	-0.44	-0.28	-0.28	-0.08	-1	-1	-0.9	-1	-1	-0.2335	-0.239	-0.1585	-0.1605	-0.035	0	0	0.04	0	0	8	8	7.96	8	8	6.132	6.088	6.692	6.716	7.72	-0.5445	-0.559666667	-0.446166667	-0.480166667	-0.371666667	167	125	144	112	49	21	25	19	12	5	0	0	1	0	0	-0.32	-0.42	-0.552083333
00077E6756	BLACKHOOD	box12	-7783.75	-180.52	422.35	23393.21	11899.1	23571.08	18161.38	35026.75	11996.02	20592.24	13047.39	602.87	box12	56	65	14	76	5.428571429	62	box12	-0.02225	0.049830508	4.688	5.478	0.44	0.76	0.8	0.28	0.28	0.6	0.6	184	26.5	28	0.32	-0.32	-0.76	-0.24	-0.16	0.32	-0.220338983	-0.955555556	-0.931034483	-0.727272727	0.0795	-0.124	-0.469	-0.2165	-0.0955	0.76	0.44	0.04	0.04	0.12	5.276	5.68	7.688	7.996	7.46	5.912	4.688	3.936	6.264	6.696	0.239833333	-0.221446328	-0.728185185	-0.462511494	-0.327590909	175	193		259	120	17	36	44	28	19	33	23	1	1	3	0.48	0	0.009193503
00077E676C	BLACK	box10	-4868.29	207.41	804.64	38890.63	23061.56	44365.06	20208.82	40299.99	18274.59	57944.22	31853.59	597.23	box10	56	12	27	72	2.666666667	45	box10	-0.77825	-0.977777778	2.1	7.888	1	0.88	0.92	0.84	0.6	0.94	0.04	295.5	100.5	1	-1	-0.8	-0.92	-0.72	-0.52	-1	-0.955555556	-1	-0.934065934	-0.846153846	-0.847	-0.7095	-0.7435	-0.5035	-0.3835	0	0.08	0	0.12	0.08	8	7.776	8	7.504	7.632	1.224	2.1	2.052	3.476	4.564	-0.949	-0.821685185	-0.887833333	-0.719188645	-0.583217949	345	246	610	521	330	113	88	109	88	36	0	2	0	3	3	-0.48	-0.9	-0.885342593
00077E6771	ALBINO	box5	3944.92	364.77	1105.14	58908.59	9462.7	44486.07	15118.41	54882.13	14624.57	11841.65	11980.36	740.37	box5	10	2	28	10	0.357142857	-18	box5	-0.22775	-0.694285714	7.568	7.75	0.64	0.08	0.16	0.28	0.16	0.36	0.06	123	27	1.5	-0.6	0	-0.08	-0.2	-0.08	-0.96	-0.428571429	-0.4	-0.4	-0.333333333	-0.437	-0.0185	-0.072	-0.078	-0.068	0.04	0.08	0.08	0.08	0.08	7.784	7.716	7.8	7.732	7.816	4.288	7.568	7.224	7.108	7.272	-0.665666667	-0.14902381	-0.184	-0.226	-0.160444444	171	75	98	82	47	49	5	7	7	4	1	2	3	3	2	-0.52	-0.3	-0.407345238
00077E67C7	BROWNHOOD	box16	1436.04	1238.41	1580.98	29379.22	17287.54	29807.1	13237.12	28212.28	14376.4	10447.11	9451.06	342.57	box16	8	1	7	8	1.142857143	1	box16	-0.28275	-0.96969697	6.536	7.944	0.6	0.24	0.12	0.08	0.08	0.42	0.02	180.5	21	0.5	-0.56	-0.24	-0.12	-0.08	-0.08	-0.939393939	-1	-1	-1	-1	-0.3825	-0.183	-0.0485	-0.058	-0.0415	0.04	0	0	0	0	7.888	8	8	8	8	4.828	6.536	7.612	7.536	7.668	-0.62729798	-0.474333333	-0.3895	-0.379333333	-0.373833333	246	115	70	49	26	32	10	7	4	2	1	0	0	0	0	-0.48	-0.4	-0.550815657
00077E67CC	BLACKHOOD	box3	6627.82	292.62	716.21	50499.54	24485.85	64405.74	28363.34	36055.54	24650.67	33961.31	16404.71	423.59	box3	25	4	12	44	3.666666667	32	box3	-0.82575	-1	1.5	8	0.96	0.96	0.92	0.8	0.56	0.96	0	242	162	0	-0.96	-0.96	-0.88	-0.68	-0.56	-1	-1	-0.952941176	-0.76119403	-1	-0.839	-0.8125	-0.661	-0.53	-0.3895	0	0	0.04	0.12	0	8	8	7.752	7.44	8	1.288	1.5	2.464	3.2	4.884	-0.933	-0.924166667	-0.831313725	-0.657064677	-0.649833333	257	227	351	397	190	168	156	83	59	28	0	0	2	8	0	-0.4	-0.96	-0.928583333
00077E78CD	BROWNHOOD	box2	-6312.46	304.84	734.8	10094.47	13403.52	22658.07	15235.41	10786.63	26711.31	11418.07	11118.94	429.96																																																																											
00077E67E5	BLACKHOOD	box4	-2384.07	1084.28	1413.54	26175.27	9502.29	30887.08	13308.76	19094	9008.36	9292.5	8197.2	329.26	box4	20	0	16	30	1.875	14	box4	-0.82725	-1	1.868	8	1	0.96	0.96	0.88	0.44	0.98	0	492	149	0	-1	-0.96	-0.92	-0.88	-0.4	-1	-1	-0.980952381	-1	-0.894736842	-0.888	-0.7665	-0.744	-0.652	-0.2795	0	0	0.04	0	0.04	8	8	7.696	8	7.98	0.896	1.868	1.744	2.784	5.744	-0.962666667	-0.908833333	-0.881650794	-0.844	-0.524745614	551	433	443	464	178	161	137	104	78	18	0	0	1	0	1	-0.6	-0.98	-0.93575
00077E680A	BROWN	box2	1912.52	102.67	751.22	68899.63	16077.56	81257.99	24653.88	72480.24	17318.12	44651.33	12243.93	648.55	box2	35	8	21	58	2.761904762	37	box2	-0.6835	-0.960351175	2.452	7.808	0.96	0.84	0.92	0.8	0.52	0.9	0.04	208	101	2	-0.92	-0.8	-0.92	-0.8	-0.44	-0.981308411	-0.939393939	-1	-1	-0.897435897	-0.697	-0.67	-0.6635	-0.5995	-0.243	0.04	0.04	0	0	0.08	7.804	7.812	8	8	7.784	2.228	2.452	2.692	3.204	5.84	-0.866102804	-0.803131313	-0.861166667	-0.799833333	-0.526811966	230	186	231	353	285	106	96	66	91	37	1	3	0	0	2	-0.48	-0.86	-0.834617058
00077E6821	BROWNHOOD	box3	1793.42	498.16	1286.48	65622.92	17302.63	82825.69	19458.56	59112.79	18893.17	37015.92	23654.94	788.32	box3	103	114	31	135	4.35483871	104	box3	0.61575	0.990909091	8	2.914	0.04	0	0.08	0.64	0.92	0.02	1	210.5	0.5	105	0.96	1	0.92	0.12	-0.8	0.981818182	1	0.972027972	0.485148515	-0.902439024	0.6275	0.604	0.6535	-0.0085	-0.6735	1	1	1	0.76	0.12	2.66	3.168	2.52	4.296	7.88	7.68	8	7.748	4.228	2.492	0.856439394	0.868	0.848509324	0.198882838	-0.791979675	140	281	230	343	446	1	0	2	26	78	109	101	141	75	4	1.76	0.98	0.862219697
00077E68AE	BROWNHOOD	box4	3016.22	840.61	1119.15	59171.98	7329.44	50868.08	12410.71	20111.88	10823.64	18757.6	10649.37	278.54	box4	30	21	20	42	2.1	22	box4	-0.2825	-0.545088714	3.096	6.376	0.68	0.84	0.96	0.96	0.8	0.76	0.42	121.5	57.5	16.5	-0.12	-0.56	-0.88	-0.92	-0.76	-0.323943662	-0.766233766	-0.95959596	-0.978723404	-0.962962963	-0.082	-0.483	-0.66	-0.608	-0.5335	0.56	0.28	0.08	0.04	0.04	5.792	6.96	7.644	7.712	7.912	5.136	3.096	2.364	2.848	3.644	-0.175314554	-0.603077922	-0.833198653	-0.835574468	-0.752154321	93	150	156	303	317	47	68	97	93	53	24	9	2	1	1	0.64	-0.34	-0.389196238
00077E68C6	ALBINO	box4	2161.12	449.15	661.33	36608.46	7395.82	17333.15	8210.76	5869.33	12783.36	16979.87	7573.97	212.18	box4	37	42	18	54	3	36	box4	0.377	0.715176715	6.54	3.984	0.08	0.28	0.24	0.4	0.56	0.18	0.9	111	7	37.5	0.8	0.64	0.44	-0.28	-0.56	0.891891892	0.538461538	0.479452055	-0.814814815	-1	0.4695	0.2845	0.2805	-0.248	-0.309	0.88	0.92	0.68	0.12	0	3.704	4.264	4.46	7.608	8	7.46	6.54	6.704	5.624	5.528	0.720463964	0.487653846	0.399984018	-0.447604938	-0.623	111	111	277	504	335	2	12	19	49	39	35	40	54	5	0	1.36	0.72	0.604058905
00077E68CA	BLACKHOOD	box3	-568.69	195.59	879.34	79032.9	31820.05	61856.11	26662.41	52572.37	23987.54	42503.54	34716.87	683.75		70	102	37	89	2.405405405	52	box3	0.524	0.831418581	6.856	2.902	0.16	0.32	0.48	0.4	0.44	0.24	0.9	132.5	7.5	82	0.8	0.52	0.48	0.44	-0.28	0.89010989	0.772727273	0.735849057	0.647058824	-0.4375	0.6285	0.4195	0.352	0.238	-0.1645	0.96	0.84	0.96	0.84	0.16	2.304	3.5	2.592	4.332	7.496	7.332	6.856	5.408	6.236	6.18	0.772869963	0.570742424	0.522616352	0.441686275	-0.294	193	72	336	236	186	5	10	14	12	23	86	78	92	56	9	1.08	0.66	0.671806194
00077E6920	BLACK	box10	-6248.77	-325.79	558.96	31710.79	14898.46	39138.44	15755.14	48126.14	18591.18	38309.48	28787.3	884.75		114	96	80	154	1.925	74	box10	0.60425	0.903865051	7.704	2.6	0.12	0.04	0	0.4	0.92	0.08	0.98	182.5	3.5	75	0.84	0.96	0.96	0.36	-0.68	0.830985915	0.976744186	1	0.692307692	-0.769230769	0.5675	0.641	0.7025	0.2025	-0.5945	0.96	1	0.96	0.76	0.24	2.624	2.576	2.38	4.448	7.144	7.164	7.704	8	6.068	2.388	0.746161972	0.859248062	0.8875	0.418269231	-0.68124359	188	177	191	187	506	6	1	0	12	69	65	85	71	66	9	1.52	0.9	0.802705017
00077E6939	BLACK	box9	-973.9	-75.41	188.05	30068.44	14555.47	36423.46	14969.04	28500.87	18117.92	16802.44	17455.15	263.46		17	9	10	20	2	10	box9	-0.23475	0.106644791	4.912	6.576	0.64	0.6	0.8	0.84	0.8	0.62	0.46	127.5	22	27.5	-0.16	-0.16	-0.24	-0.56	-0.68	0.169811321	0.043478261	-0.15942029	-0.625	-0.746031746	-0.271	-0.1985	-0.3475	-0.497	-0.4885	0.48	0.44	0.56	0.28	0.12	6.652	6.5	6.272	7.256	7.648	4.484	4.912	3.492	3.28	3.74	-0.087062893	-0.105007246	-0.24897343	-0.560666667	-0.638177249	127	128	131	276	236	22	22	40	52	55	31	24	29	12	8	0.52	-0.16	-0.09603507
00077E6961	ALBINO	box15	-9663.15	618.32	1425.69	55034.46	15682.21	23665.38	23663.48	94456.17	25969.76	55529.73	35710.48	807.37	box15	55	14	28	67	2.392857143	39	box15	0.46075	0.97260274	7.392	4.01	0	0.08	0.28	0.96	0.96	0.04	0.88	149	1	70	0.84	0.84	0.64	-0.96	-0.96	1	0.945205479	0.794871795	-1	-1	0.4925	0.429	0.3755	-0.6985	-0.7725	0.84	0.92	0.92	0	0	4.06	3.96	3.172	8	8	8	7.392	6.176	2.412	1.82	0.7775	0.738068493	0.603457265	-0.886166667	-0.910833333	116	182	197	239	448	0	2	12	80	70	69	71	105	0	0	1.8	0.84	0.757784247
00077E6B83	BLACK	box1	-3428.67	577.21	937.9	14521.04	10746.35	7064.09	5519.94	5713.66	6773.84	7891.52	5375.85	360.69	box1	46	95	8	57	7.125	49	box1	0.6885	0.961027569	7.464	1.942	0.08	0.08	0.12	0.36	0.92	0.08	1	85.5	2.5	124.5	0.92	0.92	0.88	0.48	-0.8	0.964912281	0.957142857	0.940298507	0.621052632	-0.891891892	0.674	0.703	0.5955	0.3415	-0.459	1	1	1	0.84	0.12	2.044	1.84	2.408	3.548	7.38	7.436	7.464	7.172	6.28	3.708	0.85297076	0.860047619	0.805266169	0.480850877	-0.716963964	88	83	75	231	469	2	3	4	18	70	112	137	130	77	4	1.72	0.92	0.85650919
00077E6C69	BLACKHOOD	box4	4154.04	778.57	1216.71	33716.89	9669.79	17290.39	13833.57	21495.85	10611.5	27845.81	8640.5	438.14	box4	21	0	31	27	0.870967742	-4	box4	-0.6585	-0.985507246	2.996	7.96	0.92	0.84	0.8	0.68	0.36	0.88	0.02	284	149	1	-0.92	-0.8	-0.8	-0.64	-0.32	-1	-0.971014493	-1	-0.967213115	-0.913043478	-0.7015	-0.6155	-0.5575	-0.4785	-0.1415	0	0.04	0	0.04	0.04	8	7.92	8	7.932	7.856	2.388	2.996	3.54	4.104	6.724	-0.873833333	-0.795504831	-0.785833333	-0.695237705	-0.458181159	271	297	281	339	147	162	136	85	60	22	0	2	0	1	1	-0.6	-0.86	-0.834669082
00077E7570	BLACK	box13	-6646.95	41.47	345.61	10413.2	13116.03	11192.41	13580.55	6118.38	15643.12	17938.45	11256.52	304.14	box13	23	19	32	37	1.15625	5	box13	-0.551	-0.98630137	3.884	7.85	0.88	0.76	0.36	0.28	0.48	0.82	0.02	177	81	0.5	-0.88	-0.72	-0.32	-0.16	-0.24	-1	-0.97260274	-0.466666667	-0.411764706	-0.24137931	-0.625	-0.477	-0.2215	-0.1075	-0.1715	0	0.04	0.04	0.12	0.24	8	7.7	7.76	7.536	7.16	3	3.884	5.988	6.676	5.788	-0.835	-0.723200913	-0.336055556	-0.226421569	-0.217626437	157	197	154	146	171	90	72	22	12	18	0	1	8	5	11	-0.64	-0.8	-0.779100457
00077E7582	BROWN	box6	6259.95	105.01	906.54	65445.05	18243.1	43241.64	15076.82	35419.92	28209.37	20773.94	28077.29	801.53	box6	31	30	59	37	0.627118644	-22	box6	-0.374	-0.537378392	4.084	6.944	0.76	0.76	0.72	0.56	0.6	0.76	0.3	152	48	14.5	-0.56	-0.36	-0.32	-0.24	0.04	-0.709677419	-0.365079365	-0.454545455	-0.381818182	0.192982456	-0.423	-0.325	-0.2925	-0.234	0.0645	0.2	0.4	0.4	0.32	0.64	7.204	6.684	7.004	6.664	4.72	3.82	4.084	4.664	4.792	5.236	-0.564225806	-0.350026455	-0.355681818	-0.285272727	0.099160819	150	154	164	281	244	53	43	40	38	23	9	20	15	17	34	-0.6	-0.46	-0.457126131
00077E7588	BLACK	box1	7441.59	723.85	1382.51	19758.31	13302.21	20935.55	15302.13	34001.07	18218.44	33922.87	19888.54	658.66	box1	62	45	17	81	4.764705882	64	box1	0.485	0.837916446	7.472	3.43	0.16	0.08	0.36	0.96	0.8	0.12	0.96	256.5	5	56.5	0.8	0.88	0	-0.92	-0.76	0.774193548	0.901639344	-0.3125	-0.972222222	-0.967213115	0.411	0.559	-0.021	-0.7065	-0.591	0.96	0.96	0.36	0.04	0.04	3.86	3	6.424	7.868	7.88	7.148	7.472	6.256	2.216	3.152	0.661731183	0.780213115	-0.111166667	-0.866240741	-0.772737705	259	254	157	427	372	7	3	21	71	60	55	58	11	1	1	1.56	0.84	0.720972149
00077E75A3	BLACKHOOD	box3	6847.9	1218.68	1411.11	14181.27	15889.04	64647.69	19209.6	16292.36	21369.91	64037.52	17339.56	192.43	box3	18	7	29	28	0.965517241	-1	box3	-0.7015	-0.985074627	1.88	7.926	0.84	0.92	0.84	0.92	0.44	0.88	0.02	163.5	74.5	0.5	-0.84	-0.88	-0.84	-0.84	-0.28	-1	-0.970149254	-1	-0.950617284	-0.607142857	-0.6565	-0.7465	-0.6755	-0.6875	-0.2135	0	0.04	0	0.08	0.16	8	7.852	8	7.692	7.34	2.748	1.88	2.596	2.192	5.632	-0.832166667	-0.865549751	-0.8385	-0.826039095	-0.366880952	182	145	190	260	203	83	66	81	79	45	0	1	0	2	11	-0.56	-0.86	-0.848858209
00077E75C8	BROWN	box10	-2099.45	537.27	1202.07	51214.58	9574.51	50798.61	14419.36	12847.24	6608.53	8098.64	5122.41	664.8	box10	73	25	30	122	4.066666667	92	box10	-0.7995	-1	1.48	8	1	1	1	0.92	0.84	1	0	405	198	0	-1	-1	-1	-0.92	-0.84	-1	-1	-1	-1	-1	-0.784	-0.815	-0.776	-0.7415	-0.6335	0	0	0	0	0	8	8	8	8	8	1.728	1.48	1.792	2.068	2.932	-0.928	-0.938333333	-0.925333333	-0.887166667	-0.8245	418	392	541	570	463	208	188	126	100	66	0	0	0	0	0	-0.16	-1	-0.933166667
00077E75CD	BROWN	box13	-5393.42	1073.24	1682.31	31842.1	6450.14	12906.93	10079.56	57134.47	7607.12	20364.6	4756.58	609.07	box13	23	0	9	31	3.444444444	22	box13	-0.7675	-1	2.144	8	0.96	0.92	0.88	0.92	0.72	0.94	0	318.5	90.5	0	-0.96	-0.92	-0.88	-0.92	-0.72	-1	-1	-1	-1	-1	-0.803	-0.732	-0.7095	-0.768	-0.593	0	0	0	0	0	8	8	8	8	8	1.576	2.144	2.324	1.856	3.256	-0.921	-0.884	-0.863166667	-0.896	-0.771	400	237	296		311	102	79	95	87	50	0	0	0	0	0	-0.24	-0.94	-0.9025
00077E75E2	BROWN	box1	-4634.05	-321.02	135.33	15115.31	9008.23	16979.54	6194	7831.13	9547.45	20945.6	11448	456.35	box1	5	0	8	5	0.625	-3	box1	0.0115		7.992	7.904	0	0.04	0	0.04	0.08	0.02	0.02	46.5	0.5	0.5	0	0	0	-0.04	-0.08		0		-1	-1	0	0.023	0	-0.0265	-0.068	0	0.04	0	0	0	8	7.808	8	8	8	8	7.992	8	7.788	7.456		0.007666667		-0.3555	-0.382666667	36	57	31	42	20	0	1	0	1	5	0	1	0	0	0	0.08	0	
00077E7600	BROWN	box10	-1073.41	809.91	1499.46	35292.85	7187.3	24208.83	16979.25	7369.46	7631.28	4741.94	14935.08	689.55	box10	40	43	19	48	2.526315789	29	box10	0.32	0.182159832	5.56	2.024	0.88	0.68	0.84	0.8	0.96	0.78	1	218	40.5	55.5	0.12	0.32	0.04	-0.2	-0.88	-0.009174312	0.373493976	0.094339623	-0.358974359	-0.961904762	0.1755	0.4645	0.037	-0.2505	-0.7755	1	1	0.88	0.6	0.08	2.204	1.844	2.856	6.144	7.776	3.608	5.56	3.152	4.14	1.572	0.095441896	0.385997992	0.057113208	-0.269824786	-0.872468254	142	294	386	160	637	55	26	48	53	103	54	57	58	25	2	1	0.22	0.240719944
00077E7607	BROWNHOOD	box16	-1807.43	1015.31	1540.67	5161.8	5151.35	23983.91	7504.42	10786.9	6781.06	7342.93	7366.74	525.36	box16	4	0	2	9	4.5	7	box16	-0.53975	-0.961594203	3.7	7.75	0.84	0.76	0.8	0.64	0.72	0.8	0.04	117.5	52	1	-0.8	-0.72	-0.76	-0.6	-0.68	-0.966666667	-0.956521739	-0.962962963	-0.911111111	-0.957446809	-0.577	-0.5025	-0.5725	-0.511	-0.5035	0.04	0.04	0.04	0.04	0.04	7.78	7.72	7.684	7.956	7.904	3.164	3.7	3.104	3.868	3.876	-0.781222222	-0.72634058	-0.765154321	-0.674037037	-0.713648936	101	134	128	186	221	59	45	53	43	46	1	1	1	2	1	-0.12	-0.76	-0.753781401
00077E7641	BLACK	box10	-2354.57	1010.54	1408.24	18838.85	3676.67	7510.21	5634.12	9479.2	2626.62	38986.6	4860.46	397.7	box10	22	2	22	28	1.272727273	6	box10	-0.758	-1	1.828	8	0.96	0.96	0.92	0.68	0.56	0.96	0	366	109.5	0	-0.96	-0.96	-0.92	-0.6	-0.52	-1	-1	-1	-0.93220339	-0.962264151	-0.7445	-0.7715	-0.744	-0.443	-0.3675	0	0	0	0.08	0.04	8	8	8	7.888	7.808	2.044	1.828	2.048	4.344	4.868	-0.9015	-0.9105	-0.888	-0.65840113	-0.61658805	424	308	380	424	369	118	101	85	57	52	0	0	0	2	1	-0.44	-0.96	-0.906
00077E7647	ALBINO	box13	-1355.75	555.92	759.19	33426.52	7019	61453.49	11154.81	41808.86	5856.34	7098.35	6630.02	203.27	box13	1	0	4	2	0.5	-2	box13	-0.12125	-1	6.88	8	0.2	0.2	0.08	0.04	0	0.2	0	134.5	13.5	0	-0.2	-0.2	-0.08	-0.04	0	-1	-1	-1	-1		-0.1025	-0.14	-0.028	-0.022	0	0	0	0	0	0	8	8	8	8	8	7.18	6.88	7.776	7.824	8	-0.434166667	-0.446666667	-0.369333333	-0.354		136	133	36	23	9	15	12	3	1	0	0	0	0	0	0	-0.2	-0.2	-0.440416667
00077E7649	BLACKHOOD	box3	-1137.48	741.21	1062.43	17454.65	13529.45	68351.61	17966.09	56914.9	18556.52	19452.17	11812.43	321.22	box3	37	19	31	50	1.612903226	19	box3	0.086	0.664797239	4.748	5.286	0.16	0.52	0.76	0.4	0.36	0.34	0.68	105.5	12	56.5	0.6	0.08	-0.16	-0.24	-0.32	0.803278689	0.526315789	-0.116883117	-0.612903226	-0.888888889	0.269	-0.097	-0.2605	-0.2485	-0.2375	0.76	0.6	0.6	0.16	0.04	5.048	5.524	5.756	7.468	7.968	7.2	4.748	3.672	5.48	6.068	0.55742623	0.16977193	-0.179127706	-0.367134409	-0.48212963	118	93	243	199	132	6	18	43	25	17	55	58	34	6	1	0.92	0.34	0.36359908
00077E765F	ALBINO	box14	-6732.63	-72.31	796.99	30588.15	3403.63	22322.49	10012.8	9305.03	10131.92	34904.92	14538.88	869.3	box14	17	0	6	22	3.666666667	16	box14	-0.65425	-1	3.576	8	0.92	0.72	0.72	0.6	0.4	0.82	0	122	40.5	0	-0.92	-0.72	-0.72	-0.6	-0.36	-1	-1	-1	-1	-0.882352941	-0.7555	-0.553	-0.4735	-0.4415	-0.2435	0	0	0	0	0.04	8	8	8	8	7.828	1.956	3.576	4.212	4.468	5.88	-0.891833333	-0.757666667	-0.731166667	-0.6805	-0.495284314	117	127	226	389	130	41	40	60	42	16	0	0	0	0	1	-0.56	-0.82	-0.82475
00077E7661	BLACK	box7	876.11	74.07	684.55	18149.4	11660.44	7199.05	8158.15	10621.17	9204.82	15078.1	11776.99	610.48																																																																											
00077E7664	ALBINO	box4	-2933.74	0.77	291.19	17014.79	7814.99	15327.05	13342.06	13015.83	8092.38	34258.6	10843.29	290.42	box4	5	0	11	6	0.545454545	-5	box4	-0.033	-0.666666667	7.716	7.97	0.08	0.04	0	0	0.2	0.06	0.02	23	3	0.5	-0.08	0	0	0	-0.16	-1	-0.333333333			-0.80952381	-0.038	-0.028	0	0	-0.093	0	0.04	0	0	0.04	8	7.94	8	8	7.828	7.696	7.716	8	8	7.084	-0.372666667	-0.120444444			-0.354174603	31	15	15	13	48	4	2	0	0	19	0	1	0	0	2	0.08	-0.04	-0.246555556
00077E7683	BLACKHOOD	box10	-11277.17	381.48	1016.95	6940.86	6999.58	6808.11	5110.96	12598.98	9007.5	13292.79	8535.14	635.47																																																																											
00077E769E	BROWNHOOD	box16	424.84	100.96	276.74	9152.16	4955.47	17637.36	8345.35	5935.6	6237.99	3329.24	6485.77	175.78	box16	7	2	8	9	1.125	1	box16	-0.1645	-0.744107744	7.02	7.724	0.32	0.24	0.12	0.08	0	0.28	0.08	138	17	2	-0.24	-0.16	-0.08	-0.04	0	-0.851851852	-0.636363636	-0.384615385	-0.5		-0.2405	-0.0885	-0.068	-0.0205	0	0.08	0.08	0.04	0.04	0	7.72	7.728	7.74	7.832	8	5.796	7.02	7.196	7.668	8	-0.444117284	-0.294954545	-0.177538462	-0.186833333		207	69	139	55	28	25	9	9	3	0	2	2	4	1	0	-0.24	-0.2	-0.369535915
00077E76AA	BLACKHOOD	box14	-1415.05	82.24	653.48	8911.41	11019.63	16125.27	16127.86	12363.99	9541.12	17403.76	11362.04	571.24																																																																											
00077E76D7	BLACKHOOD	box2	79.3	756.42	1331.89	7614.02	4849.31	38254.28	8823.51	6973.41	4609.57	5283.52	3569.71	575.47																																																																											
00077E76E7	ALBINO	box15	-2895.1	112.61	770.17	18567.32	10412.1	39194.64	4564	6452.4	15914.51	33462.79	6860.43	657.56	box15	45	17	40	75	1.875	35	box15	-0.765	-0.981651376	1.82	7.872	1	1	0.92	0.88	0.64	1	0.02	317	106	1	-0.96	-1	-0.84	-0.88	-0.64	-0.963302752	-1	-0.866666667	-1	-1	-0.7575	-0.7725	-0.6495	-0.517	-0.4205	0.04	0	0.08	0	0	7.744	8	7.788	8	8	1.684	1.82	2.592	3.864	4.636	-0.893600917	-0.924166667	-0.785388889	-0.799	-0.686833333	321	313	269	382	379	107	105	56	41	37	2	0	4	0	0	-0.32	-0.98	-0.908883792
00077E76EE	BLACKHOOD	box8	-3661.82	945.65	1574.24	8806.18	5246.64	20581.42	6055.67	3581.28	2594.46	6396.03	5120.67	628.59	box8	30	25	9	54	6	45	box8	0.60375	0.978947368	7.528	2.934	0	0.08	0	0.32	0.68	0.04	1	107	1	83.5	1	0.92	0.96	0.56	-0.52	1	0.957894737	1	0.747747748	-0.803921569	0.602	0.6055	0.631	0.2835	-0.3815	1	1	0.96	0.88	0.16	3.184	2.684	2.952	4.056	7.388	8	7.528	8	6.324	4.336	0.867333333	0.827798246	0.863666667	0.530415916	-0.568473856	106	108	123	157	173	0	2	0	14	46	74	93	119	97	5	1.52	0.96	0.847565789
00077E7714	BLACK	box6	1466.08	569.66	1237.73	21589.44	6425.89	10853.48	5431.81	5216.66	5607.96	12056.24	4982.35	668.07	box6	44	59	16	57	3.5625	41	box6	-0.041	-0.039665407	4.056	4.81	0.6	0.76	0.96	1	0.88	0.68	0.64	198	54.5	51	0.12	-0.2	-0.92	-1	-0.8	0.155963303	-0.235294118	-0.981981982	-1	-0.951807229	0.067	-0.149	-0.753	-0.77	-0.6085	0.72	0.56	0.04	0	0.08	4.372	5.248	7.908	8	7.748	4.908	4.056	1.884	1.84	2.88	0.114321101	-0.194764706	-0.884993994	-0.923333333	-0.786769076	166	230	314	393	415	46	63	110	130	81	63	39	1	0	2	0.92	-0.04	-0.040221802
00077E772F	BLACK	box9	-5505.12	163.17	716.35	10333.86	7637.75	32762.93	7773.73	3838.92	7508.16	11379.32	6670.93	553.18	box9	9	0	25	11	0.44	-14	box9	-0.61425	-1	3.796	8	0.88	0.76	0.72	0.64	0.48	0.82	0	203	75.5	0	-0.88	-0.76	-0.72	-0.64	-0.4	-1	-1	-1	-1	-0.875	-0.703	-0.5255	-0.403	-0.449	-0.2	0	0	0	0	0.08	8	8	8	8	7.596	2.376	3.796	4.776	4.408	5.996	-0.861	-0.761833333	-0.707666667	-0.696333333	-0.491666667	249	157	201	232	199	91	60	50	37	30	0	0	0	0	2	-0.48	-0.82	-0.811416667
00077E7740	BROWNHOOD	box16	356.16	70.64	396.33	17320	6089.65	7086.06	10499.55	24677.42	10168.08	8345.71	3700.86	325.69																																																																											
00077E7746	BLACKHOOD	box8	3170.39	329.87	778.88	7540.53	10855.85	7480.51	10893.4	8115.42	8165.04	11758.68	14387.14	449.01	box8	31	45	11	42	3.818181818	31	box8	0.425	0.823674043	6.664	3.81	0.08	0.32	0.12	0.56	0.32	0.2	0.78	52.5	6.5	69	0.72	0.44	0.6	-0.44	-0.28	0.948717949	0.698630137	0.75	-0.72972973	-0.6	0.558	0.292	0.321	-0.258	-0.1255	0.8	0.76	0.72	0.12	0.04	3.292	4.328	4.684	7.716	7.848	7.756	6.664	7.252	5.652	6.844	0.742239316	0.476876712	0.557	-0.47590991	-0.335166667	60	45	73	181	120	2	11	7	32	16	76	62	49	5	4	1	0.58	0.609558014
00077E7749	BROWN	box15	867.65	468.76	1191.65	20564.24	9978.71	14804.62	25668.59	6833.42	6443.35	5267.68	3448.35	722.89																																																																											
00077E7754	BROWN	box6	-4459.69	954.79	1214.68	70640.24	12100.4	59995.45	19412.66	28513.72	15733.88	18839.67	12476.17	259.89	box6	35	15	18	58	3.222222222	40	box6	-0.744	-0.990196078	2.136	7.942	0.92	0.88	1	0.96	0.68	0.9	0.02	332	89.5	0.5	-0.88	-0.88	-1	-0.96	-0.64	-0.980392157	-1	-1	-1	-0.958333333	-0.755	-0.733	-0.656	-0.8045	-0.3515	0.04	0	0	0	0.04	7.884	8	8	8	7.688	1.844	2.136	2.752	1.564	4.876	-0.871797386	-0.871	-0.885333333	-0.9215	-0.649944444	456	208	125	412	434	101	78	70	86	47	1	0	0	0	1	-0.24	-0.88	-0.871398693
00077E775B	BROWNHOOD	box15	1871.05	287.05	1047.61	11478.23	5722.92	5099.1	7822.28	5423.13	6422.21	17861.39	12887.3	760.56	box15	38	49	17	49	2.882352941	32	box15	0.14525	0.347547974	6.436	4.754	0.64	0.44	0.84	0.88	0.24	0.54	0.86	173.5	25.5	50	0.2	0.44	-0.56	-0.88	-0.24	0.142857143	0.552238806	-0.62962963	-1	-1	0.1345	0.156	-0.505	-0.6775	-0.1575	0.84	0.88	0.28	0	0	4.32	5.188	7.26	8	8	5.396	6.436	3.22	2.58	6.74	0.159119048	0.382746269	-0.564876543	-0.8525	-0.465833333	160	187	255	358	79	36	15	44	65	18	48	52	10	0	0	0.44	0.32	0.270932658
00077E776B	BLACKHOOD	box12	-5807.02	-223.06	318.88	10931.92	9713.24	7717.02	9348.93	13989.2	8249.12	12088.24	19007.03	541.94	box12	0	0	3	0	0	-3	box12	-0.66875	-1	2.98	8	0.92	0.84	0.76	0.64	0.44	0.88	0	195	67	0	-0.92	-0.84	-0.64	-0.6	-0.4	-1	-1	-0.829787234	-0.945945946	-0.92	-0.71	-0.6275	-0.4865	-0.433	-0.3135	0	0	0.12	0.04	0.04	8	8	7.624	7.932	7.836	2.32	2.98	3.732	4.468	5.328	-0.876666667	-0.8225	-0.652095745	-0.659648649	-0.5445	153	237	191	187	138	72	62	43	36	24	0	0	4	1	1	-0.52	-0.88	-0.849583333
00077E776D	ALBINO	box5	-1040.49	241.65	895.23	9146.78	8959.5	14140.19	12727	21210	10694.09	5864.92	7718.31	653.58	box5	8	7	19	16	0.842105263	-3	box5	-0.4295	-0.586032389	3.108	6.352	0.88	0.8	0.6	0.44	0.44	0.84	0.44	220.5	61	16	-0.32	-0.48	-0.56	-0.36	-0.32	-0.461538462	-0.710526316	-0.955555556	-0.842105263	-0.666666667	-0.4055	-0.4535	-0.3805	-0.274	-0.1695	0.56	0.32	0.04	0.08	0.12	5.968	6.736	7.92	7.62	7.548	2.724	3.108	4.876	5.428	6.192	-0.395679487	-0.548008772	-0.632018519	-0.492035088	-0.385388889	243	198	153	171	124	57	65	44	35	15	21	11	1	3	3	0	-0.4	-0.47184413
00077E7777	BROWN	box10	-7831.28	1056.68	1361.22	28131.01	9409.46	42185.54	17934.6	53920.34	22273.58	79500.48	26938.07	304.54	box10	62	58	9	70	7.777777778	61	box10	0.3075	0.532581454	4.892	3.704	0.16	0.76	0.76	0.72	0.52	0.46	0.88	136.5	18	62	0.8	0.04	0.04	-0.48	-0.04	0.880952381	0.184210526	0.129411765	-0.413793103	0.28358209	0.5835	0.0315	-0.0435	-0.38	0.017	0.96	0.8	0.8	0.24	0.48	2.768	4.64	4.692	7.152	5.828	7.436	4.892	4.344	4.112	5.964	0.75481746	0.085236842	0.041970588	-0.424597701	0.086860697	153	120	200	280	222	5	31	37	41	24	79	45	48	17	43	0.84	0.42	0.420027151
00077E7779	BROWN	box9	-5850.61	-250.75	409.68	7837.63	9046.03	9460.37	6896.13	6225.75	7885.67	29818.51	10756.02	660.43	box9	19	12	17	26	1.529411765	9	box9	-0.2775	-0.306462358	3.368	5.368	1	0.92	0.84	0.84	0.68	0.96	0.6	79.5	50.5	27	-0.44	-0.28	-0.08	-0.56	-0.68	-0.473684211	-0.139240506	-0.054054054	-0.604651163	-1	-0.3045	-0.2505	-0.2325	-0.525	-0.468	0.56	0.64	0.76	0.28	0	5.364	5.372	5.528	7.264	8	2.928	3.368	3.668	3.064	4.256	-0.406061404	-0.223246835	-0.122184685	-0.563217054	-0.716	65	94	188	230	151	56	45	39	69	56	20	34	35	17	0	0.24	-0.36	-0.314654119
00077E7792	BROWN	box9	-6606.16	-225.86	342.64	15814.95	7241.2	4926	4733.06	20822.25	9691.27	31984.28	8566.73	568.5	box9	6	7	6	8	1.333333333	2	box9	-0.12475	-0.50750469	6.524	7.32	0.36	0.36	0.28	0.24	0.28	0.36	0.16	113.5	26	7.5	-0.24	-0.16	-0.12	0	-0.28	-0.707317073	-0.307692308	-0.333333333	-0.153846154	-1	-0.187	-0.0625	-0.0955	0.0195	-0.1845	0.12	0.2	0.16	0.24	0	7.616	7.024	7.492	6.76	8	6.12	6.524	6.728	6.916	6.524	-0.378105691	-0.176730769	-0.182944444	-0.044782051	-0.488166667	136	91	72	107	97	35	17	14	15	14	6	9	7	11	0	0.04	-0.2	-0.27741823
00077E7798	BROWNHOOD	box4	-7172.74	128.43	699.1	20658.03	24993.55	52161.2	21453.93	22696.7	24068.7	50876.65	23011.79	570.67	box4	6	9	6	7	1.166666667	1	box4	-0.21475	-0.80952381	6.316	7.698	0.48	0.4	0.28	0.12	0.12	0.44	0.1	170	26.5	4	-0.28	-0.4	-0.28	-0.12	-0.08	-0.619047619	-1	-1	-1	-0.666666667	-0.219	-0.2105	-0.1795	-0.0655	-0.069	0.2	0	0	0	0.04	7.396	8	8	8	7.92	5.644	6.316	6.564	7.476	7.368	-0.37268254	-0.536833333	-0.4865	-0.395166667	-0.271888889	175	165	179	14	37	34	19	14	6	5	8	0	0	0	1	-0.2	-0.34	-0.454757937
00077E77A4	BLACK	box5	2043.53	1015.24	1552.68	6313.12	7284.32	6749.66	7108.5	7513.82	3241.42	12097.97	8944.21	537.44	box5	20	15	7	27	3.857142857	20	box5	0.16175	0.714672076	7.22	5.218	0.4	0.16	0.32	0.4	0.2	0.28	0.72	94	8	46.5	0.28	0.6	0.08	-0.32	-0.16	0.586206897	0.843137255	0.066666667	-0.885714286	-0.833333333	0.059	0.2645	-0.0545	-0.294	-0.071	0.68	0.76	0.4	0.08	0.04	5.332	5.104	6.46	7.852	7.872	5.804	7.22	6.024	5.5	7.304	0.308402299	0.569212418	0.030722222	-0.499904762	-0.354777778	83	105	126	178	109	12	4	14	33	11	46	47	16	2	1	0.44	0.44	0.438807359
00077E77A9	BROWN	box5	5104.59	1301.8	1509.91	9190.31	8926.47	7459.72	6559.8	35395.46	10463.93	36762.83	14029.39	208.11	box5	4	0	13	7	0.538461538	-6	box5	-0.374	-1	5.46	8	0.64	0.48	0.52	0.16	0.08	0.56	0	159.5	39.5	0	-0.64	-0.48	-0.48	-0.08	0.04	-1	-1	-0.878787879	-0.555555556	0.333333333	-0.4305	-0.3175	-0.244	-0.086	0.003	0	0	0.04	0.08	0.12	8	8	7.836	7.808	7.812	4.556	5.46	5.884	7.12	7.836	-0.690166667	-0.599166667	-0.534262626	-0.240518519	0.125444444	162	157	164	127	46	42	37	31	14	2	0	0	2	4	4	-0.68	-0.56	-0.644666667
00077E77AD	BROWNHOOD	box7	-11438.48	-20.86	871.1	13360.77	12269.78	19564.77	12294.75	14060.58	14111.37	34993.02	18640.41	891.96	box7	67	39	27	88	3.259259259	61	box7	0.43925	0.923076923	7.472	4.222	0	0.12	0.48	0.8	0.92	0.06	0.96	299.5	2.5	60.5	0.92	0.88	0.36	-0.2	-0.8	1	0.846153846	0.473684211	-0.333333333	-0.868131868	0.4515	0.427	0.2455	-0.2575	-0.749	0.92	1	0.84	0.6	0.12	4.388	4.056	3.68	5.444	7.608	8	7.472	5.644	3.384	1.616	0.7905	0.717717949	0.35972807	-0.263611111	-0.805710623	260	339	235	397	725	0	5	20	42	85	61	60	56	21	6	1.72	0.9	0.754108974
00077E77AF	BLACK	box6	-3087.7	395.6	800.7	1235.58	2980.26	9079.25	4156.52	3411.78	4924.57	2087.21	4216.73	405.1	box6	64	127	22	78	3.545454545	56	box6	0.75925	0.975409836	8	1.772	0.04	0	0.04	0.44	0.84	0.02	1	114.5	1.5	125	0.96	1	0.84	0.32	-0.6	0.950819672	1	0.980392157	0.409090909	-0.515151515	0.7265	0.792	0.648	0.043	-0.481	1	1	0.88	0.76	0.24	1.88	1.664	2.544	5.208	6.788	7.692	8	7.728	5.552	2.94	0.879106557	0.930666667	0.822797386	0.257363636	-0.532050505	119	110	112	165	274	3	0	1	26	50	119	131	101	62	16	1.56	0.98	0.904886612
00077E77B4	ALBINO	box1	-9127.92	501.06	944.07	6033.69	8887.55	15596.13	11696.31	18585.09	10776	18547.89	13216.51	443.01	box1	67	65	18	99	5.5	81	box1	0.6225	1	8	3.02	0	0	0.08	0.08	0.6	0	0.96	80.5	0	88.5	0.96	0.96	0.84	0.32	-0.48	1	1	0.945205479	0.555555556	-0.833333333	0.598	0.647	0.4355	0.1015	-0.3305	0.96	0.96	0.92	0.4	0.12	3.216	2.824	4.184	6.78	7.616	8	8	7.668	7.592	4.972	0.852666667	0.869	0.74023516	0.325685185	-0.547944444	57	104	174	204	287	0	0	2	4	33	85	92	71	14	3	1.44	0.96	0.860833333
00077E77B7	BLACKHOOD	box4	2114.71	1320.78	1515.21	6487.72	7074.05	10642.01	4712.79	4542.24	3661.65	3916.67	5442.42	194.43	box4	0	0	7	0	0	-7	box4	-0.0245	-0.833333333	7.948	7.958	0.08	0.04	0.04	0.12	0.24	0.06	0.02	64	3	0.5	-0.04	-0.04	0	-0.12	-0.2	-0.666666667	-1	-0.5	-1	-0.866666667	-0.0425	-0.0065	0.0015	-0.075	-0.076	0.04	0	0.04	0	0.04	7.916	8	7.76	8	7.688	7.576	7.948	7.772	7.4	7.08	-0.249722222	-0.348833333	-0.166166667	-0.398333333	-0.380888889	66	62	52	104	161	5	1	6	4	14	1	0	2	0	1	0.16	-0.04	-0.299277778
00077E77D1	ALBINO	box7	-4254.06	614.78	1440.84	86914.96	7614.02	50002.35	7772.94	8547.61	6763.7	58130.29	9238.08	826.06	box7	45	37	26	56	2.153846154	30	box7	0.38475	0.980392157	8	4.844	0.04	0	0.08	0.08	0.16	0.02	0.8	172.5	0.5	45	0.88	0.68	0.8	0.48	-0.04	0.960784314	1	0.916666667	0.677419355	-0.066666667	0.465	0.3045	0.452	0.224	-0.024	0.92	0.68	0.88	0.56	0.12	4.124	5.564	4.188	5.888	7.652	7.844	8	7.804	7.68	7.46	0.768594771	0.6615	0.722888889	0.460473118	-0.043555556	81	264	195	216	236	1	0	3	5	8	50	40	69	26	7	0.92	0.78	0.715047386
00077E77E1	BROWNHOOD	box12	-5030.64	-380.21	490.56	11448.21	12276.96	14126.42	13992.4	25672.19	10385.83	13731.58	20047.8	870.77	box12	98	19	43	128	2.976744186	85	box12	-0.5315	-0.988636364	3.872	7.844	0.96	0.8	0.96	0.92	0.84	0.88	0.02	188	85	0.5	-0.96	-0.76	-0.92	-0.92	-0.72	-1	-0.977272727	-0.968	-1	-0.896103896	-0.586	-0.477	-0.694	-0.6545	-0.584	0	0.04	0.04	0	0.12	8	7.688	7.688	8	7.504	3.312	3.872	2.136	2.764	2.832	-0.848666667	-0.738090909	-0.860666667	-0.858166667	-0.733367965	178	198	223	329	289	83	87	123	87	73	0	1	2	0	4	-0.24	-0.86	-0.793378788
00077E77F4	BROWNHOOD	box8	-3610.62	989.65	1510.54	8844.35	7020.48	7242.48	7124.45	9342.23	6418.82	38850.92	11735.03	520.89	box8	5	1	7	5	0.714285714	-2	box8	-0.23925	-0.693181818	5.932	7.836	0.44	0.36	0.24	0.28	0.12	0.4	0.08	140.5	19.5	3.5	-0.32	-0.32	-0.2	-0.28	0	-0.636363636	-0.75	-0.8	-1	-0.090909091	-0.232	-0.2465	-0.1155	-0.1715	-0.024	0.12	0.04	0.04	0	0.12	7.768	7.904	7.868	8	7.764	5.912	5.932	6.944	6.628	7.572	-0.396121212	-0.438833333	-0.371833333	-0.483833333	-0.03830303	145	136	85	140	72	18	21	9	11	6	4	3	1	0	5	-0.32	-0.32	-0.417477273
00077E7803	BROWN	box1	-23418.56	893.22	1390.25	13041.7	15668.72	34589.65	22629.35	39892.75	25734.96	77424.19	24104.62	497.03	box1	8	1	5	15	3	10	box1	-0.0045		7.928	8	0	0.04	0.04	0.08	0.04	0.02	0	22	1	0	0	-0.04	0	-0.08	-0.04		-1	0	-1	-1	0	-0.009	0.033	-0.027	-0.003	0	0	0.04	0	0	8	8	7.732	8	8	8	7.928	7.996	7.784	7.976		-0.349666667	0.011	-0.369	-0.347666667	27	17	21	10	34	0	2	2	2	1	0	0	2	0	0	0.04	-0.02	
00077E7814	BROWNHOOD	box15	-4758.68	582.18	1177.44	20971.35	13944.66	67278.18	13977.08	59538.01	21789.34	79086.71	17026.69	595.26	box15	39	32	15	48	3.2	33	box15	-0.1805	-0.233426604	2.12	3.966	0.8	0.88	0.84	0.64	0.68	0.84	0.8	185.5	59.5	37	0	-0.08	0.04	0	-0.4	-0.227722772	-0.239130435	0.018518519	0.111111111	-0.5	-0.141	-0.22	0.0685	-0.0255	-0.4135	0.8	0.8	0.88	0.64	0.28	4.052	3.88	2.688	4.984	7.3	2.924	2.12	3.236	4.78	3.992	-0.122907591	-0.179710145	0.042339506	0.028537037	-0.437833333	103	268	288	173	365	62	57	53	32	42	39	35	55	40	14	0.4	-0.04	-0.151308868
00077E782C	BROWN	box2	-4656.61	141.44	996.76	92287.39	8156.25	44869.22	12410.23	18592.54	18958.87	86528.75	22792.55	855.32	box2	24	21	58	33	0.568965517	-25	box2	-0.2415	-0.237934363	4.812	7.1	0.44	0.8	0.64	0.68	0.8	0.62	0.28	97.5	28.5	18	-0.28	-0.4	-0.04	-0.6	-0.6	-0.297297297	-0.178571429	-0.016393443	-0.888888889	-0.75	-0.2335	-0.2495	-0.1355	-0.3265	-0.51	0.16	0.4	0.6	0.08	0.2	7.392	6.808	6.084	7.776	7.496	5.524	4.812	5	5.164	3.416	-0.270265766	-0.27602381	-0.063964481	-0.60512963	-0.62	137	58	158	207	336	24	33	31	34	49	13	23	30	2	7	0.32	-0.34	-0.273144788
00077E783B	BLACK	box5	-2420.66	-224.35	211.58	14761.1	12332.17	12964.81	16613.2	18642.7	17190.58	25462.61	20964	435.93	box5	5	1	1	11	11	10	box5	-0.3295	-0.939876216	5.284	7.858	0.56	0.48	0.16	0.28	0.68	0.52	0.04	171	33	1	-0.52	-0.44	-0.12	-0.24	-0.64	-0.948717949	-0.931034483	-0.6	-0.75	-0.942857143	-0.334	-0.325	-0.105	-0.193	-0.394	0.04	0.04	0.04	0.04	0.04	7.832	7.884	7.984	7.872	7.852	5.16	5.284	7.144	6.328	4.7	-0.600905983	-0.565344828	-0.275	-0.394333333	-0.658952381	147	195	135	159	142	38	28	8	14	34	1	1	2	2	1	0.12	-0.48	-0.583125405
00077E7857	BROWN	box11	-4123.25	325.52	929.69	33804.95	6353.58	14913.16	13999.97	7587.31	8702.97	14549	12146.95	604.17																																																																											
00077E7863	BLACKHOOD	box4	-5760.86	58.79	933.3	47314.9	11910.47	16183.67	18373.59	20973.49	12947.04	18368.79	17880.87	874.51	box4	25	39	23	29	1.260869565	6	box4	-0.1485	-0.291237319	2.64	4.366	0.92	0.92	0.8	0.88	0.76	0.92	0.8	190	72.5	39.5	-0.2	-0.04	-0.16	-0.32	-0.68	-0.214953271	-0.367521368	-0.454545455	-0.469387755	-0.876923077	-0.11	-0.187	-0.2265	-0.4515	-0.475	0.72	0.88	0.64	0.56	0.08	4.596	4.136	5.264	5.928	7.864	3.716	2.64	3.452	2.316	4.064	-0.174984424	-0.198173789	-0.280348485	-0.413629252	-0.677307692	192	188	138	207	285	65	80	72	72	61	42	37	27	26	4	0.48	-0.12	-0.186579106
00077E7887	BROWNHOOD	box11	289.8	352.02	1101.97	74717.19	21375.04	69929.98	27051.51	52622.52	28411.82	42382.39	21404.09	749.95	box11	58	73	37	77	2.081081081	40	box11	0.6825	0.980582524	7.64	2.36	0	0.08	0.28	0.44	0.8	0.04	0.98	105	1	95	0.96	0.92	0.68	0.48	-0.76	1	0.961165049	0.76344086	0.581395349	-0.97260274	0.689	0.676	0.479	0.368	-0.5775	0.96	1	0.96	0.92	0.04	2.488	2.232	3.04	3.636	7.952	8	7.64	6.872	6.58	3.332	0.883	0.85238835	0.64081362	0.476465116	-0.770034247	92	118	169	205	392	0	2	11	18	72	89	101	82	68	1	1.72	0.94	0.867694175
00077E7898	BLACK	box5	-4608.31	-110.45	675.97	20732.15	9711.03	21118.84	8093.12	22398.71	3868.91	8501.88	8285.8	786.42																																																																											
00077E78B9	ALBINO	box2	-11960.66	626.86	1425.92	19419.03	17331.77	39327.84	11873.43	48190.55	16557.95	18027.21	15015.27	799.06	box2	45	65	23	53	2.304347826	30	box2	0.63225	0.957188645	7.636	2.466	0.08	0.08	0.68	0.96	0.84	0.08	0.98	172	2	91.5	0.88	0.92	0	-0.88	-0.76	0.958333333	0.956043956	0.097345133	-0.943925234	-0.93442623	0.598	0.6665	-0.0915	-0.74	-0.639	0.96	1	0.68	0.08	0.08	2.628	2.304	4.968	7.484	7.852	7.412	7.636	4.236	1.564	2.74	0.812111111	0.847514652	0.001948378	-0.854641745	-0.777808743	185	159	258	450	421	2	2	51	104	59	94	89	62	3	2	1.64	0.9	0.829812882
00077E78C7	BROWNHOOD	box15	3601.18	102.34	708.34	62483.71	13711.99	20473.68	23244.36	6471.54	9007.38	58064.38	7513.55	606	box15	28	23	7	32	4.571428571	25	box15	-0.341	-0.462648221	2.884	5.442	0.96	0.88	0.64	0.56	0.64	0.92	0.7	231.5	73.5	27.5	-0.12	-0.32	-0.52	-0.44	-0.44	-0.381818182	-0.543478261	-0.836065574	-0.777777778	-0.692307692	-0.2175	-0.4645	-0.41	-0.3015	-0.247	0.84	0.56	0.12	0.12	0.2	4.284	6.6	7.796	7.6	7.176	2.544	2.884	4.516	5.188	5.2	-0.239772727	-0.44265942	-0.588688525	-0.506425926	-0.459769231	137	326	194	225	185	76	71	56	32	33	34	21	5	4	6	0.32	-0.22	-0.341216074
00077E78DC	BROWNHOOD	box3	-6394.51	822.72	1160.79	18094.49	10624.54	11776.36	9617.34	39199.51	24166.31	15526.67	17522.71	338.07	box3	28	0	67	47	0.701492537	-20	box3	-0.815	-1	1.088	8	0.96	1	1	1	0.92	0.98	0	285	90.5	0	-0.96	-1	-1	-0.92	-0.84	-1	-1	-1	-0.956989247	-0.961538462	-0.766	-0.864	-0.8295	-0.731	-0.683	0	0	0	0.08	0.08	8	8	8	7.372	7.776	1.872	1.088	1.364	1.524	2.312	-0.908666667	-0.954666667	-0.943166667	-0.869329749	-0.828179487	200	370	401	469	394	85	96	82	91	102	0	0	0	2	2	-0.12	-0.98	-0.931666667
00077E78E8	ALBINO	box14	-6264.06	-182.58	440.44	50230.56	10904.74	37478.43	12959.53	54438.65	20093.47	40631.45	17717.82	623.02	box14	98	3	28	166	5.928571429	138	box14	-0.789	-1	1.568	8	1	1	1	1	0.72	1	0	637	154	0	-1	-1	-1	-0.96	-0.72	-1	-1	-1	-0.989071038	-1	-0.774	-0.804	-0.885	-0.8225	-0.586	0	0	0	0.04	0	8	8	8	7.696	8	1.808	1.568	0.92	1.116	3.312	-0.924666667	-0.934666667	-0.961666667	-0.923857013	-0.768666667	487	787	749		757	165	143	138	182	62	0	0	0	1	0	-0.28	-1	-0.929666667
00077E78E9	ALBINO	box14	-1132.93	241.55	904.94	26456.68	9386.5	22800.36	15310.35	32488.58	9413.38	38294.52	13423.06	663.39	box14	28	29	13	31	2.384615385	18	box14	-0.15525	0.004330446	3.408	5.222	0.8	0.84	0.68	0.44	0.44	0.82	0.72	114	38.5	39	0	-0.2	-0.12	-0.32	-0.28	0.113924051	-0.105263158	0.088235294	-0.571428571	-0.615384615	-0.045	-0.2655	-0.2815	-0.2945	-0.2305	0.8	0.64	0.56	0.12	0.16	4.912	5.532	5.848	7.7	7.612	4.552	3.408	3.596	5.344	5.768	0.022974684	-0.190254386	-0.104421569	-0.395309524	-0.375294872	91	137	205	194	132	35	42	31	22	21	44	34	37	6	5	0.28	-0.1	-0.083639851
00077E78F9	BROWN	box9	2062.05	4.73	290.62	52784.15	12001.75	32878.18	13808.77	55126.67	14865.61	30945.4	11781.81	285.89	box9	25	9	6	34	5.666666667	28	box9	-0.30575	-0.83467612	3.776	6.994	0.76	0.88	1	0.92	0.6	0.82	0.22	166	74.5	8	-0.36	-0.84	-1	-0.92	-0.6	-0.738317757	-0.931034483	-1	-1	-1	-0.11	-0.5015	-0.7355	-0.654	-0.385	0.4	0.04	0	0	0	6.2	7.788	8	8	8	5.32	3.776	2.116	2.768	4.92	-0.402772586	-0.757511494	-0.911833333	-0.858	-0.661666667	199	133	284	499	343	93	56	79	59	53	14	2	0	0	0	0.24	-0.6	-0.58014204
00077E790D	BROWNHOOD	box4	-5820.86	88.95	637.2	32051.16	12976.96	11894.92	13812.41	12856.18	15531.75	34950.84	15152.23	548.25	box4	23	41	26	31	1.192307692	5	box4	-0.15325	-0.11387632	5.544	6.162	0.72	0.48	0.32	0.08	0.12	0.6	0.48	271	35.5	29	-0.16	-0.08	-0.12	-0.04	0.12	-0.051282051	-0.176470588	-0.5	-0.666666667	0.333333333	-0.1935	-0.113	-0.1665	-0.0305	0.0335	0.56	0.4	0.2	0.04	0.24	5.876	6.448	7.672	7.928	7.224	4.328	5.544	6.34	7.684	7.492	-0.13492735	-0.123156863	-0.262166667	-0.245722222	0.162277778	324	218	284	153	102	41	30	27	5	4	37	21	9	1	8	-0.28	-0.12	-0.129042107
00077E791A	BROWNHOOD	box4	-6863.89	889.59	1214.81	8102.74	4473.55	3480.03	10220.91	12441.6	23809.34	21560.14	9251.21	325.22	box4	4	0	6	5	0.833333333	-1	box4	-0.031	-1	7.584	8	0.04	0.08	0	0.04	0.04	0.06	0	8.5	1.5	0	-0.04	-0.08	0	-0.04	-0.04	-1	-1		-1	-1	-0.01	-0.052	0	-0.0085	-0.0345	0	0	0	0	0	8	8	8	8	8	7.92	7.584	8	7.932	7.724	-0.35	-0.377333333		-0.3495	-0.358166667	12	5	6	19	8	1	2	0	1	1	0	0	0	0	0	0	-0.06	-0.363666667
00077E7933	BLACK	box5	-5584.58	15.78	452.08	5588.67	4936.02	7549.57	7249.9	13971.61	10334.9	13431	9140.55	436.3	box5	15	0	28	23	0.821428571	-5	box5	-0.66425	-1	2.532	8	0.88	0.92	0.64	0.64	0.16	0.9	0	377.5	95.5	0	-0.88	-0.92	-0.64	-0.64	-0.08	-1	-1	-1	-1	-0.333333333	-0.645	-0.6835	-0.3805	-0.366	-0.0135	0	0	0	0	0.08	8	8	8	8	7.616	2.84	2.532	4.956	5.072	7.508	-0.841666667	-0.867833333	-0.6735	-0.668666667	-0.142277778	333	422	366	283	111	98	93	58	33	6	0	0	0	0	3	-0.8	-0.9	-0.85475
00077E7939	BROWN	box6	-7839.81	615.18	1297.46	18343.61	14316.72	29756.95	16186.36	41706.17	12973.8	33115.8	10653.67	682.28	box6	110	129	62	187	3.016129032	125	box6	0.7145	0.951219512	8	2.068	0.08	0	0.16	0.04	0.56	0.04	1	212	2	81	0.92	1	0.84	0.92	0.24	0.902439024	1	0.916666667	0.975308642	0.467741935	0.6955	0.7335	0.6615	0.6815	0.0905	1	1	1	0.96	0.8	2.004	2.132	1.588	2.268	3.9	7.568	8	6.88	7.72	4.624	0.839313008	0.911166667	0.806055556	0.858936214	0.266080645	269	155	141	229	375	4	0	4	1	33	78	84	92	80	91	0.68	0.96	0.875239837
00077E7941	BLACKHOOD	box3	-510.07	305.3	1056.85	15274.68	21848.07	18512.35	22393.35	17500.43	18672.5	18413.74	17861.24	751.55	box3	42	19	33	60	1.818181818	27	box3	0.1505	0.522104608	5.04	4.274	0.36	0.56	0.76	0.88	0.76	0.46	0.86	187.5	20	60.5	0.6	0.2	-0.2	-0.52	-0.12	0.726027397	0.318181818	-0.310344828	-0.517241379	-0.204301075	0.2415	0.0595	-0.34	-0.4915	-0.2305	0.96	0.76	0.56	0.36	0.64	3.984	4.564	6.096	6.828	5.752	5.916	5.04	3.376	2.896	3.908	0.522509132	0.192560606	-0.283448276	-0.50958046	-0.184933692	237	138	137	316	411	10	30	38	44	56	63	58	20	14	37	0.72	0.4	0.357534869
00077E7946	BROWNHOOD	box11	9456.52	767.93	1308.24	63582.99	27804.37	23700.74	18114.52	28045.87	21912.17	23154.24	12934.99	540.31	box11	89	101	17	111	6.529411765	94	box11	0.46225	1	8	4.302	0	0	0.08	0.28	0.32	0	0.9	110.5	0	51.5	0.92	0.88	0.84	0.44	0.4	1	1	0.841269841	0.538461538	0.343283582	0.4945	0.43	0.462	0.2065	0.199	0.92	0.88	0.92	0.72	0.72	4.044	4.56	3.944	5.004	4.536	8	8	7.64	6.656	6.128	0.804833333	0.77	0.71442328	0.394987179	0.314094527	114	107	155	162	291	0	0	5	12	22	53	50	58	40	45	0.52	0.9	0.787416667
00077E7951	BLACKHOOD	box15	-10190.51	-150.45	360.39	14741.2	5092.91	46954.59	13531.56	73216.76	13216.2	56951.08	13709.02	510.84	box15	41	1	9	61	6.777777778	52	box15	-0.447	-0.812637122	3.82	7.62	0.68	0.76	0.6	0.52	0.24	0.72	0.1	157	43.5	4.5	-0.56	-0.68	-0.6	-0.36	-0.16	-0.813953488	-0.811320755	-1	-0.621621622	-0.363636364	-0.4205	-0.4735	-0.444	-0.2825	-0.1605	0.12	0.08	0	0.16	0.08	7.632	7.608	8	7.26	7.692	4.268	3.82	4.448	5	6.408	-0.598151163	-0.654940252	-0.681333333	-0.421373874	-0.228045455	93	221	219	212	94	39	48	25	30	15	4	5	0	7	7	-0.4	-0.62	-0.626545707
00077E7954	BLACK	box14	2300.42	767.16	1160.49	38475.52	14353.76	38464.7	11184.28	15791.51	12321.3	17370.86	15330.43	393.33	box14	12	1	13	21	1.615384615	8	box14	-0.5255	-1	3.536	8	0.68	0.76	0.52	0.84	0.84	0.72	0	149	66.5	0	-0.68	-0.76	-0.52	-0.84	-0.68	-1	-1	-1	-1	-0.811320755	-0.493	-0.558	-0.3585	-0.607	-0.516	0	0	0	0	0.16	8	8	8	8	7.62	4.056	3.536	5.132	3.144	3.492	-0.724333333	-0.772666667	-0.626166667	-0.815666667	-0.669106918	92	206	99	152	470	59	74	35	59	48	0	0	0	0	5	0	-0.72	-0.7485
00077E7956	ALBINO	box12	-2825.29	258.36	910.84	36190.98	22696.12	29752.99	25315.37	29048.12	14996.43	24064.55	26841.48	652.48	box12	26	44	40	44	1.1	4	box12	-0.195	0.075306122	2.832	5.672	0.48	0.8	0.44	0.44	0.52	0.64	0.56	203	46	53	0.24	-0.4	-0.24	-0.32	-0.32	0.530612245	-0.38	-0.4	-0.36	-0.379310345	0.0815	-0.4715	-0.2305	-0.2165	-0.182	0.72	0.4	0.2	0.12	0.2	4.74	6.604	7.328	7.408	7.128	5.392	2.832	5.484	5.676	5.672	0.284037415	-0.417166667	-0.290166667	-0.298833333	-0.293770115	201	205	241	227	101	23	69	35	17	20	75	31	15	8	9	0.56	-0.08	-0.066564626
00077E7959	BLACKHOOD	box7	-6444.13	277.91	999.8	30780.64	5637.77	108738.74	9043.7	2166.66	5729.74	7006.43	11141.47	721.89	box7	12	1	12	22	1.833333333	10	box7	-0.26225	-0.931983806	6.664	7.874	0.72	0.32	0.36	0.28	0.08	0.52	0.04	217.5	41	1	-0.68	-0.28	-0.32	-0.28	0.04	-0.969230769	-0.894736842	-0.857142857	-1	0.333333333	-0.382	-0.1425	-0.2745	-0.143	0.022	0.04	0.04	0.04	0	0.12	7.944	7.804	7.888	8	7.532	4.888	6.664	5.692	6.856	7.708	-0.677076923	-0.439078947	-0.483880952	-0.474333333	0.131777778	250	185	119	147	55	64	18	13	16	2	1	1	1	0	4	-0.72	-0.48	-0.558077935
00077E797E	BROWN	box10	-5487.68	432.33	991.59	39828.42	8231.15	13681.19	9440.52	49181.71	15125.66	15777.85	14939.35	559.26	box10	38	1	27	59	2.185185185	32	box10	-0.795	-1	1.388	8	1	1	0.96	1	0.92	1	0	328	113	0	-1	-1	-0.96	-1	-0.92	-1	-1	-1	-1	-1	-0.7635	-0.8265	-0.8215	-0.875	-0.6815	0	0	0	0	0	8	8	8	8	8	1.892	1.388	1.428	1	2.548	-0.921166667	-0.942166667	-0.927166667	-0.958333333	-0.867166667	370	286	209	457	462	105	121	124	123	87	0	0	0	0	0	-0.08	-1	-0.931666667
00077E797F	BROWN	box14	1618.46	186.85	890.89	6050.98	13637.95	25110.03	6734.97	31559.71	5437.39	36662.22	22822.08	704.04	box14	132	110	35	163	4.657142857	128	box14	0.562	0.916203704	7.304	2.688	0.12	0.12	0.28	0.52	0.72	0.12	0.92	286.5	4	90	0.8	0.8	0.52	0.12	0.04	0.907407407	0.925	0.722222222	0.035714286	0.090909091	0.564	0.56	0.298	-0.0615	-0.118	0.92	0.92	0.8	0.64	0.76	2.552	2.824	4.116	5.732	4.944	7.064	7.304	6.5	5.24	4	0.757135802	0.761666667	0.513407407	0.031404762	0.00430303	297	276	164	155	369	5	3	10	27	35	103	77	62	29	42	0.76	0.8	0.759401235
00077E7986	BLACKHOOD	box3	1200.31	200.34	981.35	99069.52	17507.48	82544.83	27359.13	103486.54	17332.92	25688.67	27138.3	781.01	box3	60	94	41	98	2.390243902	57	box3	0.43475	0.776118728	5.012	2.47	0.2	0.68	0.44	0.96	0.56	0.44	0.92	197	16	133	0.72	0.24	0.48	-0.44	-0.16	0.911949686	0.64028777	0.7125	-0.473684211	-0.098039216	0.5805	0.289	0.3745	-0.3345	-0.0745	0.92	0.92	0.92	0.52	0.4	2.24	2.7	2.36	5.556	5.996	6.884	5.012	5.356	2.88	5.4	0.737483229	0.38976259	0.522333333	-0.416061404	-0.110846405	216	178	236	343	341	7	25	23	70	28	152	114	137	25	23	0.88	0.48	0.563622909
00077E798A	BROWN	box5	-962.8	-499.1	186.55	6503.06	9292.55	10638.33	9919.23	7522.69	7084.92	5670.57	5199.1	685.65	box5	15	1	4	25	6.25	21	box5	-0.436	-1	5.028	8	0.8	0.6	0.56	0.04	0.2	0.7	0	230	34.5	0	-0.8	-0.6	-0.56	0	-0.04	-1	-1	-1	0	-0.263157895	-0.5005	-0.3715	-0.4375	0.014	-0.0665	0	0	0	0.04	0.16	8	8	8	7.748	7.352	3.996	5.028	4.5	7.86	6.82	-0.766833333	-0.657166667	-0.665833333	0.004666667	-0.123219298	228	232	293	118	196	34	35	42	2	12	0	0	0	2	7	-0.76	-0.7	-0.712
00077E79A4	ALBINO	box3	-134.89	270.94	573.17	79080.92	12829.52	69127.96	12880.3	79514.42	23984.52	59344.46	16100.58	302.23	box3	78	124	15	88	5.866666667	73	box3	0.58275	0.898199023	6.348	2.278	0.08	0.4	0.52	0.6	0.52	0.24	1	119	9	154	0.92	0.6	0.4	0.36	0	0.972222222	0.824175824	0.706293706	0.596899225	-0.122807018	0.618	0.5475	0.367	0.3265	-0.1315	1	1	0.92	0.96	0.52	2.588	1.968	2.732	2.676	6.236	7.532	6.348	5.668	5.288	5.184	0.836740741	0.657225275	0.491097902	0.427799742	-0.084769006	148	90	155	158	261	2	16	21	26	32	142	166	122	103	25	0.92	0.76	0.746983008
00077E79AD	BROWNHOOD	box7	1627.61	1369.04	1660.66	24602.69	4123.07	89097.78	7131.75	61097.86	9742.76	6591.57	8061.13	291.62	box7	15	1	9	24	2.666666667	15	box7	-0.76125	-1	1.96	8	0.96	1	0.96	0.92	0.8	0.98	0	262	172.5	0	-0.96	-1	-0.96	-0.92	-0.8	-1	-1	-1	-1	-1	-0.7675	-0.755	-0.711	-0.7165	-0.46	0	0	0	0	0	8	8	8	8	8	1.86	1.96	2.312	2.268	4.32	-0.909166667	-0.918333333	-0.890333333	-0.878833333	-0.753333333	342	182	361	419	274	184	161	116	85	45	0	0	0	0	0	-0.16	-0.98	-0.91375
00077E79AE	BROWN	box6	11936.23	423.62	717.55	103583.71	16748.39	108699.14	29308.91	95690.52	22856.96	83504.97	17568.54	293.93	box6	52	33	29	67	2.310344828	38	box6	0.52525	0.949362668	7.148	3.23	0.04	0.12	0.32	0.68	0.84	0.08	0.96	142.5	2	74	0.96	0.8	0.52	-0.28	-0.8	0.971014493	0.927710843	0.566666667	-0.384615385	-0.96875	0.5655	0.485	0.244	-0.265	-0.515	1	0.92	0.84	0.4	0.04	3.192	3.268	4.78	6.752	7.84	7.716	7.148	6.732	4.632	3.72	0.832171498	0.737570281	0.443555556	-0.309871795	-0.76125	119	166	182	232	717	1	3	13	36	63	68	80	47	16	1	1.76	0.88	0.784870889
00077E79B4	BROWNHOOD	box16	-139.76	632.86	1280.81	37233.25	14679.85	45294.94	17288.8	38657.1	14704.35	15411.3	13339.71	647.95	box16	20	6	9	26	2.888888889	17	box16	-0.291	-0.404761905	4.392	7.026	0.48	0.64	0.52	0.48	0.2	0.56	0.3	315.5	28.5	11.5	0	-0.52	-0.48	-0.36	-0.2	0	-0.80952381	-0.952380952	-0.85	-1	-0.182	-0.4	-0.357	-0.3175	-0.132	0.48	0.12	0.04	0.12	0	6.46	7.592	7.916	7.764	8	5.004	4.392	5.06	5.224	6.944	-0.060666667	-0.576507937	-0.596460317	-0.509166667	-0.444	237	394	332	216	112	19	38	41	37	11	19	4	1	3	0	0.2	-0.26	-0.318587302
00077E79B6	BROWNHOOD	box4	5514.12	171.5	703.3	11305.78	9237.74	18498.51	16272.24	25280.72	18784.6	26639.09	7953.38	531.8	box4	36	37	41	46	1.12195122	5	box4	-0.145	0.194736842	3.768	5.654	0.48	0.72	0.84	0.52	0.56	0.6	0.72	109	25	23	0.44	-0.2	-0.64	-0.36	-0.32	0.6	-0.210526316	-0.746031746	-0.657142857	-0.692307692	0.008	-0.298	-0.474	-0.2555	-0.3295	0.92	0.52	0.2	0.16	0.24	5.156	6.152	7.58	7.548	7.396	5.22	3.768	3.788	5.504	4.76	0.349333333	-0.236175439	-0.620010582	-0.424214286	-0.447269231	11	207	220	273	187	4	46	55	29	44	16	30	8	6	8	0.76	0.12	0.056578947
00077E79BA	BROWN	box2	3717.74	285.98	915.31	24319.36	15251.06	37183.31	27476.53	41466.75	20794.44	45472.37	10101.88	629.33	box2	89	95	25	114	4.56	89	box2	0.54775	0.929475016	6.984	2.856	0.08	0.16	0.04	0.56	0.88	0.12	0.94	94.5	3.5	94	0.88	0.76	0.84	0.28	-0.32	0.956989247	0.901960784	0.943396226	0.623762376	-0.108433735	0.5925	0.503	0.61	0.0805	-0.272	0.96	0.92	0.88	0.84	0.56	2.752	2.96	2.8	4.088	5.868	7.492	6.984	7.68	4.732	3.692	0.809829749	0.721653595	0.797798742	0.328087459	-0.233477912	65	124	117	152	302	2	5	3	19	46	91	97	103	82	37	1.2	0.82	0.765741672
00077E79BF	ALBINO	box3	5709.26	208.48	577.38	22859.26	11834.65	10561.7	14826.28	10860.8	12513.65	8712.66	14523.01	368.9	box3	79	168	24	86	3.583333333	62	box3	0.74925	0.991304348	7.68	1.846	0	0.04	0.04	0.2	0.64	0.02	1	189	0.5	128	1	0.96	0.96	0.72	0.04	1	0.982608696	0.982608696	0.886178862	-0.026315789	0.7675	0.731	0.7965	0.5885	-0.093	1	1	1	0.92	0.68	1.86	1.832	1.532	2.428	5.34	8	7.68	7.904	7.136	4.596	0.9225	0.891202899	0.913036232	0.731559621	-0.026438596	215	163	187	209	346	0	1	1	7	39	142	114	114	116	37	0.96	0.98	0.906851449
00077E79C0	BROWNHOOD	box4	-2384.06	-331.9	368.93	32612.92	6467.07	7245.16	5359.2	6528.22	14155.99	6993.26	8356.75	700.83	box4	2	0	1	3	3	2	box4	-0.20625	-0.562056738	7.464	7.79	0.64	0.16	0.28	0.16	0.08	0.4	0.06	149.5	26.5	3	-0.6	-0.08	-0.28	-0.16	-0.08	-0.957446809	-0.166666667	-1	-1	-1	-0.374	-0.0385	-0.19	-0.1215	-0.0065	0.04	0.08	0	0	0	7.808	7.772	8	8	8	4.816	7.464	6.48	7.028	7.948	-0.643815603	-0.095055556	-0.49	-0.427166667	-0.362166667	218	81	160	68	11	46	7	11	10	2	1	5	0	0	0	-0.52	-0.34	-0.369435579
00077E79CE	BROWN	box10	3948.09	1314.38	1536.5	40085.1	10364.81	23130.72	15139.07	19057.98	16641.18	8820.18	4123.41	222.12	box10	25	13	8	33	4.125	25	box10	0.35625	0.95	8	4.998	0.12	0	0.12	0.32	0.64	0.06	0.74	114	1.5	45	0.72	0.64	0.6	0.04	-0.64	0.9	1	0.743589744	0.310344828	-1	0.426	0.2865	0.2375	0.061	-0.449	0.84	0.64	0.72	0.36	0	4.288	5.708	5.26	6.488	8	7.696	8	7.16	6.976	4.408	0.682	0.642166667	0.527029915	0.137114943	-0.696333333	135	93	148	263	255	3	0	5	10	42	57	33	34	19	0	1.36	0.68	0.662083333
00077E79EB	ALBINO	box10	921.22	897.39	1519.78	109605.27	19030.51	96042.84	19720.3	33381.09	13382.16	11111.48	9198.58	622.39	box10	45	36	17	51	3	34	box10	0.2765	0.574844834	5.244	4.024	0.16	0.48	0.84	0.68	0.48	0.32	0.86	164.5	17	57.5	0.76	0.32	-0.76	-0.48	-0.4	0.848484848	0.301204819	-0.928571429	-0.792207792	-0.692307692	0.4535	0.0995	-0.5995	-0.448	-0.236	0.92	0.8	0.08	0.2	0.08	3.6	4.448	7.904	7.292	7.62	7.228	5.244	3.108	3.708	5.732	0.687328283	0.24023494	-0.762690476	-0.573402597	-0.442769231	125	204	439	488	134	5	29	54	69	22	61	54	2	8	4	1.16	0.54	0.463781611
00077E79EC	BROWNHOOD	box11	-11205.12	-116.49	581.31	168633.56	17477.94	92878.17	19632.44	88676.74	22864.16	64860.38	18668.56	697.8	box11	40	23	35	54	1.542857143	19	box11	0.4795	0.954795205	7.692	3.876	0.04	0.04	0.08	0.64	0.92	0.04	0.88	111.5	1.5	63	0.8	0.88	0.76	-0.08	-0.92	0.961538462	0.948051948	0.935483871	-0.289473684	-1	0.4435	0.5155	0.43	-0.292	-0.641	0.84	0.92	0.84	0.56	0	4.184	3.568	4.036	6.288	8	7.732	7.692	7.476	3.952	2.872	0.735012821	0.781183983	0.708494624	-0.220491228	-0.853666667	118	105	115	245	447	1	2	2	49	79	51	75	60	27	0	1.72	0.84	0.758098402
00077E79EE	BROWNHOOD	box8	-813.99	46.88	693.62	32109.02	10879.18	48065.02	17675.43	19950.81	4851.32	23651.14	11279.24	646.74	box8	29	39	23	38	1.652173913	15	box8	-0.4355	-0.640711902	3.34	6.368	0.96	0.88	0.88	0.64	0.4	0.92	0.46	165	60	15.5	-0.2	-0.72	-0.68	-0.48	-0.16	-0.419354839	-0.862068966	-0.64516129	-0.636363636	-0.034482759	-0.33	-0.541	-0.45	-0.3775	-0.0765	0.76	0.16	0.2	0.16	0.24	5.068	7.668	7.076	7.672	7.376	2.428	3.34	3.476	4.652	6.764	-0.316451613	-0.707689655	-0.59172043	-0.497954545	-0.090327586	189	141	209	138	170	66	54	51	27	15	27	4	11	6	14	-0.04	-0.46	-0.512070634
00077E79F4	BLACK	box3	-1009.91	1135.63	1642.47	16237.27	15080.55	26029.63	23172.69	8354.19	19820.4	41326.1	20768.69	506.84	box2	38	0	9	48	5.333333333	39	box2	-0.57425	-1	3.592	8	0.88	0.8	0.48	0.04	0	0.84	0	264	46.5	0	-0.88	-0.8	-0.48	-0.04	0.12	-1	-1	-1	-1	1	-0.5975	-0.551	-0.3105	-0.0075	0.0685	0	0	0	0	0.12	8	8	8	8	7.452	3.22	3.592	5.516	7.94	8	-0.825833333	-0.783666667	-0.596833333	-0.349166667	0.396166667	221	307	133	39	30	49	44	24	1	0	0	0	0	0	5	-1	-0.84	-0.80475
00077E7A0C	ALBINO	box3	9877.09	716.34	1050.21	96240.19	19777.46	24934.06	18135.27	98207.39	27432.85	65465.45	19149.88	333.87	box3	33	47	18	36	2	18	box3	-0.0685	-0.090120482	4.268	4.876	0.92	0.88	0.96	0.8	0.92	0.9	0.74	156	43	36	-0.2	-0.12	-0.52	-0.6	-0.76	-0.12	-0.060240964	-0.745454545	-0.828571429	-0.901234568	-0.0295	-0.1075	-0.5195	-0.372	-0.6165	0.72	0.76	0.44	0.2	0.16	4.624	5.128	6.864	7.384	7.68	4.388	4.268	2.708	4.408	2.748	-0.1165	-0.095913655	-0.594984848	-0.600190476	-0.759244856	103	209	205	122	423	42	44	96	64	77	33	39	14	6	4	0.56	-0.16	-0.106206827
00077E7A10	BROWNHOOD	box4	-5101.41	-231.3	278.44	35465	9137.22	48696.72	10704.2	11389.77	11056.29	12445.94	11731.4	509.74	box4	2	2	9	2	0.222222222	-7	box4	-0.72275	-0.972972973	1.704	7.922	0.84	1	0.72	0.52	0.36	0.92	0.02	406	99	1.5	-0.84	-0.96	-0.68	-0.48	-0.28	-1	-0.945945946	-0.936507937	-0.945945946	-0.739130435	-0.678	-0.7675	-0.528	-0.404	-0.187	0	0.04	0.04	0.04	0.08	8	7.844	7.744	7.944	7.736	2.576	1.704	3.52	4.712	6.24	-0.839333333	-0.891148649	-0.714835979	-0.609981982	-0.402043478	302	510	278	194	179	90	108	61	36	20	0	3	2	1	3	-0.56	-0.9	-0.865240991
00077E7A17	ALBINO	box9	-2342.43	676.91	1572.17	20808.05	9525.44	26214.83	12963.98	23360.9	8172.06	9816.01	9504.94	895.26	box9	16	0	25	20	0.8	-5	box9	-0.374	-0.838549075	4.716	7.7	0.64	0.68	0.48	0.44	0.36	0.66	0.12	173.5	34.5	3	-0.44	-0.64	-0.36	-0.44	-0.24	-0.72972973	-0.947368421	-0.8	-1	-0.375	-0.3465	-0.4015	-0.3155	-0.265	-0.2155	0.2	0.04	0.12	0	0.12	7.472	7.928	7.676	8	7.884	4.7	4.716	5.152	5.88	6.16	-0.50540991	-0.66295614	-0.491833333	-0.568333333	-0.276833333	127	220	186	123	166	32	37	36	22	11	5	1	4	0	5	-0.2	-0.54	-0.584183025
00077E7A19	BLACK	box14	-5701.84	65.19	528.69	6151.3	1726.04	11741.6	9826.52	19564.82	10968.96	47791.28	14348.5	463.5	box14	75	37	14	89	6.357142857	75	box14	0.59325	0.9375	7.436	2.972	0	0.08	0.36	1	0.92	0.04	0.96	145.5	1.5	42	0.96	0.88	0.6	-0.96	-0.92	1	0.875	0.5625	-0.975308642	-1	0.639	0.5475	0.2815	-0.753	-0.6865	0.96	0.96	0.96	0.04	0	2.888	3.056	3.704	7.988	8	8	7.436	5.956	1.964	2.508	0.866333333	0.7675	0.481333333	-0.896102881	-0.868833333	122	169	211	233	495	0	3	14	80	74	39	45	50	1	0	1.88	0.92	0.816916667
00077E7A23	ALBINO	box5	-411.97	1563.73	1758.69	7059.25	4682.96	6336.15	6092.57	4217.89	4358	4797.73	4160.16	194.96	box5	12	0	1	15	15	14	box5	-0.61425	-1	3.708	8	0.88	0.76	0.84	0.84	0.4	0.82	0	104	61.5	0	-0.88	-0.76	-0.84	-0.8	-0.4	-1	-1	-1	-0.962264151	-1	-0.692	-0.5365	-0.5995	-0.6225	-0.306	0	0	0	0.04	0	8	8	8	7.94	8	2.464	3.708	3.204	2.96	5.552	-0.857333333	-0.7655	-0.813166667	-0.794921384	-0.568666667	128	80	140	229	196	67	56	60	52	25	0	0	0	1	0	-0.48	-0.82	-0.811416667
00077E7A45	BROWN	box10	-11243.02	406.87	1193.12	113123.42	10339.74	10131.95	19060.75	152750.44	20095.16	24898.44	15670.53	786.25	box10	23	15	5	29	5.8	24	box10	-0.358	-0.554245283	3.48	6.786	0.68	0.84	0.64	0.56	0.48	0.76	0.34	169	46	12.5	-0.24	-0.6	-0.48	-0.48	-0.36	-0.358490566	-0.75	-0.608695652	-0.647058824	-0.677419355	-0.258	-0.458	-0.3225	-0.339	-0.2575	0.44	0.24	0.16	0.08	0.12	6.428	7.144	7.248	7.828	7.792	4.364	3.48	4.668	5.116	5.732	-0.285496855	-0.602666667	-0.470398551	-0.488686275	-0.431639785	144	194	249	178	150	36	56	37	28	26	17	8	9	6	5	0.12	-0.42	-0.444081761
00077E7A51	BROWN	box6	-79.46	551.58	1275.17	62121.06	20872.9	86854.73	28448.83	87514.03	23151.12	79797.22	21268.33	723.59	box6	66	74	47	94	2	47	box6	0.37975	0.613371616	4.944	2.504	0.44	0.64	0.88	0.76	0.8	0.54	0.92	173	21	89.5	0.56	0.2	0	-0.12	-0.24	0.773913043	0.452830189	0.075268817	-0.028571429	-0.357142857	0.5635	0.196	-0.0675	-0.109	-0.148	1	0.84	0.88	0.64	0.56	1.632	3.376	3.432	5.204	5.116	6.14	4.944	2.892	4.332	3.932	0.632471014	0.282943396	0.002589606	-0.085857143	-0.248380952	149	197	182	344	441	13	29	43	36	57	102	77	50	34	27	0.8	0.38	0.457707205
00077E7A5C	ALBINO	box10	-430.38	938.67	1519.78	55856.99	15093.74	56129.5	13099.12	35593.86	12761.57	34439.26	13126	581.11	box10	50	1	10	85	8.5	75	box10	-0.81325	-1	2.076	8	1	0.96	0.96	0.88	0.64	0.98	0	394	92	0	-1	-0.96	-0.96	-0.88	-0.64	-1	-1	-1	-1	-1	-0.886	-0.7405	-0.735	-0.531	-0.4225	0	0	0	0	0	8	8	8	8	8	0.912	2.076	2.12	3.752	4.62	-0.962	-0.900166667	-0.898333333	-0.803666667	-0.6875	341	447	220	254	352	94	90	101	74	47	0	0	0	0	0	-0.36	-0.98	-0.931083333
00077E7A62	BROWN	box14	631.73	314.25	1123.09	30736.26	14580.63	17685.93	20655.56	18878.18	23199.04	37360.98	17814.62	808.84	box14	30	21	18	44	2.444444444	26	box14	-0.2625	-0.445540183	3.288	5.688	0.96	0.88	0.68	0.88	0.56	0.92	0.6	142.5	59.5	23	-0.36	-0.28	0	-0.72	-0.44	-0.518987342	-0.372093023	-0.205479452	-0.808510638	-0.789473684	-0.1695	-0.3555	-0.2945	-0.5285	-0.2875	0.6	0.6	0.68	0.16	0.12	5.244	6.132	6.344	7.372	7.504	3.888	3.288	3.988	3.144	5.204	-0.349495781	-0.335864341	-0.166659817	-0.685670213	-0.505657895	121	164	287	343	303	60	59	44	85	34	19	27	29	9	4	0.08	-0.32	-0.342680061
00077E7A66	ALBINO	box3	-2170.7	432.3	976.54	91043.22	11968.72	91129.56	8657.08	71690.87	18037.37	42070.93	11899.12	544.24	box3	66	77	27	72	2.666666667	45	box3	0.63425	0.975	8	2.464	0.12	0	0.04	0.6	0.8	0.06	0.96	462.5	1.5	94	0.88	0.92	0.68	0.12	-0.52	0.95	1	0.9	0.129032258	-0.634146341	0.692	0.5765	0.3105	-0.042	-0.483	1	0.92	0.72	0.72	0.28	1.54	3.388	5.196	5.144	6.944	7.076	8	7.68	4.808	3.08	0.840666667	0.832166667	0.630166667	0.069010753	-0.545715447	572	353	152	182	585	3	0	2	27	67	117	71	38	35	15	1.4	0.9	0.836416667
00077E7A7B	ALBINO	box3	924.05	1076.74	1544.94	9801.26	11041.85	82977.97	13550.56	51449.47	10225.61	30627.53	5398.23	468.2	box3	22	15	14	32	2.285714286	18	box3	0.283	0.796614872	5.584	4.386	0.04	0.32	0.32	0.44	0.44	0.18	0.78	137.5	5.5	55	0.8	0.4	-0.16	0.16	-0.32	0.970588235	0.622641509	-0.555555556	0.25	-0.263157895	0.5185	0.0475	-0.2375	-0.053	-0.1255	0.84	0.72	0.16	0.6	0.12	3.568	5.204	7.716	6.084	7.728	7.716	5.584	5.816	5.66	6.724	0.763029412	0.356713836	-0.317685185	0.119	-0.236219298	155	120	78	166	300	1	10	14	15	12	67	43	4	25	7	1.12	0.6	0.559871624
00077E7A7E	ALBINO	box15	4050.9	599.03	869.8	105558.91	29407.95	62889.57	20891.12	88446.31	15394.72	86925.57	13133.64	270.77	box15	23	1	4	35	8.75	31	box15	-0.74525	-1	1.964	8	0.92	0.96	0.88	0.8	0.36	0.94	0	214.5	106	0	-0.92	-0.96	-0.88	-0.8	-0.36	-1	-1	-1	-1	-1	-0.736	-0.7545	-0.665	-0.656	-0.2215	0	0	0	0	0	8	8	8	8	8	2.112	1.964	2.68	2.752	6.228	-0.885333333	-0.904833333	-0.848333333	-0.818666667	-0.527166667	194	235	381	355	149	109	103	74	63	15	0	0	0	0	0	-0.56	-0.94	-0.895083333
00077E7A8A	BLACK	box9	309.52	78.11	416.21	6119.42	6348.74	10651.28	9317.29	14687.44	12830.32	12057.99	12038.41	338.1	box9	6	6	5	8	1.6	3	box9	-0.71675	-0.976230661	2.292	7.844	1	0.96	0.88	0.76	0.4	0.98	0.04	172	83.5	1	-0.96	-0.92	-0.84	-0.56	-0.24	-0.977777778	-0.974683544	-0.974025974	-0.660377358	-0.333333333	-0.748	-0.6855	-0.6775	-0.389	-0.1135	0.04	0.04	0.04	0.2	0.16	7.912	7.776	7.736	7.16	6.992	1.928	2.292	2.316	4.048	6.084	-0.895259259	-0.860061181	-0.830508658	-0.536459119	-0.228944444	176	168	283	175	128	89	78	76	44	18	1	1	1	9	9	-0.72	-0.94	-0.87766022
00077E7A8D	ALBINO	box9	-6960.83	739.74	1514.31	15208.62	13047.86	28722.56	13439.97	18992.52	12955.22	15912.85	14113.24	774.57	box9	22	16	10	36	3.6	26	box9	-0.44525	-0.976744186	3.892	7.872	0.68	0.84	0.56	0.44	0.4	0.76	0.02	169.5	54.5	0.5	-0.64	-0.84	-0.52	-0.4	-0.36	-0.953488372	-1	-0.911111111	-0.916666667	-0.909090909	-0.377	-0.5135	-0.277	-0.241	-0.235	0.04	0	0.04	0.04	0.04	7.744	8	7.736	7.948	7.828	4.728	3.892	5.52	6.02	5.948	-0.656829457	-0.7845	-0.56937037	-0.519222222	-0.501363636	111	228	170	108	99	42	67	43	23	21	1	0	2	1	1	-0.28	-0.74	-0.720664729
00077E7A92	BROWNHOOD	box7	911.7	-140.11	754.15	21695.41	6234.85	9665.85	9261.09	11352.69	12998.11	17741.63	11277.06	894.26	box7	60	61	8	77	9.625	69	box7	0.6775	0.956668608	7.82	2.444	0.04	0.04	0.12	0.84	0.72	0.04	1	128.5	2	91	0.96	0.96	0.8	-0.4	-0.52	0.96039604	0.952941176	0.84	-0.411764706	-0.761904762	0.7005	0.6545	0.46	-0.375	-0.3755	1	1	0.92	0.44	0.2	2.304	2.584	3.568	6.488	7.32	7.908	7.82	7.248	3.488	4.316	0.873632013	0.855813725	0.7	-0.395588235	-0.552468254	121	136	179	254	360	2	2	6	48	37	99	83	69	20	5	1.48	0.96	0.864722869
00077E7A93	BLACK	box5	-5853.42	919.02	1643.34	5445	10028.6	9040.64	7683.66	5989.99	7676.86	7652.34	7927.4	724.32	box5	26	2	8	36	4.5	28	box5	-0.73225	-1	1.504	8	0.92	1	0.84	0.84	0.76	0.96	0	160	101	0	-0.92	-1	-0.84	-0.84	-0.72	-1	-1	-1	-1	-0.916666667	-0.6525	-0.812	-0.5695	-0.6125	-0.412	0	0	0	0	0.04	8	8	8	8	7.832	2.78	1.504	3.444	3.1	4.536	-0.8575	-0.937333333	-0.803166667	-0.8175	-0.682888889	121	199	217	239	272	58	144	108	69	69	0	0	0	0	3	-0.2	-0.96	-0.897416667
00077E7A9B	ALBINO	box12	-8072.84	-160.19	374.21	17008.21	10075.35	16971.73	10414.43	8785.72	11176.06	17577.28	25337.25	534.4	box12	19	11	20	28	1.4	8	box12	-0.28325	-0.459877085	2.46	5.818	0.72	0.96	0.76	0.8	0.52	0.84	0.52	234	56	20	-0.16	-0.48	-0.72	-0.72	-0.24	-0.343283582	-0.576470588	-0.939393939	-0.890909091	-0.380952381	-0.0795	-0.487	-0.6255	-0.5015	-0.216	0.56	0.48	0.04	0.08	0.28	5.28	6.356	7.948	7.544	7.284	4.644	2.46	2.944	3.532	5.556	-0.194261194	-0.514490196	-0.761631313	-0.704136364	-0.278984127	153	315	193	170	269	45	67	64	52	29	22	18	2	3	13	0.08	-0.32	-0.354375695
00077E7A9C	BLACK	box1	-3207.92	403.74	674.94	5252.63	8673.35	19693.94	8597.01	15439.69	6358.09	11335.67	5497.45	271.2	box1	4	0	5	5	1	0	box1	-0.63075	-1	3.452	8	0.88	0.76	0.76	0.68	0.36	0.82	0	177.5	93.5	0	-0.88	-0.76	-0.72	-0.64	-0.36	-1	-1	-0.960784314	-0.953488372	-1	-0.693	-0.5685	-0.4735	-0.54	-0.1715	0	0	0.04	0.04	0	8	8	7.928	7.912	8	2.456	3.452	4.14	3.592	6.628	-0.857666667	-0.776166667	-0.718094771	-0.711162791	-0.5105	147	208	295	220	122	110	77	50	42	13	0	0	1	1	0	-0.52	-0.82	-0.816916667
00077E7AA6	BROWNHOOD	box11	2975.03	276.18	714.85	9638.02	11243.18	6135.69	8866.08	22198.16	8519.4	25263.47	8063.57	438.67	box11	22	0	13	41	3.153846154	28	box11	-0.75975	-1	1.964	8	0.92	0.96	0.96	0.96	0.64	0.94	0	183.5	149	0	-0.92	-0.96	-0.96	-0.96	-0.64	-1	-1	-1	-1	-1	-0.765	-0.7545	-0.755	-0.756	-0.3945	0	0	0	0	0	8	8	8	8	8	1.88	1.964	1.96	1.952	4.844	-0.895	-0.904833333	-0.905	-0.905333333	-0.678166667	168	199	244	349	345	171	127	103	83	47	0	0	0	0	0	-0.28	-0.94	-0.899916667
00077E7AB1	BLACKHOOD	box16	51.56	169.4	312.71	26781.37	5208.22	14350.38	7725.09	13941.16	5716.32	5979.56	4986.81	143.31	box16	10	3	16	11	0.6875	-5	box16	-0.65675	-1	3.388	8	0.92	0.84	0.96	0.92	0.72	0.88	0	198.5	71	0	-0.92	-0.84	-0.96	-0.92	-0.64	-1	-1	-1	-1	-0.917808219	-0.737	-0.5765	-0.6815	-0.704	-0.5455	0	0	0	0	0.08	8	8	8	8	7.756	2.104	3.388	2.548	2.368	3.392	-0.885666667	-0.8055	-0.8805	-0.874666667	-0.70110274	212	185	180	290	337	79	63	64	73	70	0	0	0	0	3	-0.28	-0.88	-0.845583333
00077E7AB6	BROWNHOOD	box15	-16070.29	-282.19	429.29	33502.87	23613.03	45100.36	15890.92	15155.09	16370.44	39944.13	20014.8	711.48	box15	53	62	49	68	1.387755102	19	box15	0.299	0.723214286	5.888	3.868	0.2	0.32	0.56	0.56	0.84	0.26	0.86	135	12.5	83.5	0.72	0.48	-0.2	-0.4	-0.68	0.821428571	0.625	-0.047619048	-0.666666667	-0.773584906	0.446	0.152	-0.2565	-0.2805	-0.53	0.92	0.8	0.36	0.16	0.16	3.064	4.672	6.812	7.708	7.592	6.632	5.888	4.76	5.464	3.352	0.66247619	0.419	-0.168039683	-0.449055556	-0.661194969	150	120	95	127	290	10	15	22	25	47	102	65	20	5	6	1.4	0.6	0.540738095
00077E7AB7	BLACKHOOD	box7	-11583.72	559.83	1384.75	23283.03	13948.69	123573.7	21799.91	133899.25	18763.13	104731.47	23557.48	824.92	box7	40	1	16	56	3.5	40	box7	-0.64475	-1	2.552	8	0.84	0.92	0.92	0.76	0.92	0.88	0	194.5	42	0	-0.84	-0.92	-0.92	-0.76	-0.92	-1	-1	-1	-1	-1	-0.6085	-0.681	-0.5935	-0.4635	-0.601	0	0	0	0	0	8	8	8	8	8	3.132	2.552	3.252	4.292	3.192	-0.816166667	-0.867	-0.837833333	-0.741166667	-0.840333333	215	174	154	173	331	37	47	80	51	60	0	0	0	0	0	0.08	-0.88	-0.841583333
00077E7AD5	BROWNHOOD	box8	-63.94	-435.87	138.57	15219.38	5434.07	26681.65	5850.12	51286.2	6259.66	10797.86	8232.72	574.44	box8	8	0	8	10	1.25	2	box8	-0.2695	-1	6.392	8	0.52	0.36	0.2	0.24	0.04	0.44	0	82	31.5	0	-0.52	-0.36	-0.2	-0.24	-0.04	-1	-1	-1	-1	-1	-0.338	-0.201	-0.09	-0.103	-0.0055	0	0	0	0	0	8	8	8	8	8	5.296	6.392	7.28	7.176	7.956	-0.619333333	-0.520333333	-0.43	-0.447666667	-0.3485	113	51	49	84	37	42	21	12	12	2	0	0	0	0	0	-0.48	-0.44	-0.569833333
00077E7AE4	BROWN	box5	-12632.68	84.22	881.55	9209.97	6205.31	9139.8	9234.67	12456.95	11859.14	15962.73	12537.44	797.33	box5	13	0	3	15	5	12	box5	-0.74375	-1	2.364	8	1	0.88	0.92	0.68	0.64	0.94	0	165	74.5	0	-1	-0.88	-0.92	-0.68	-0.64	-1	-1	-1	-1	-1	-0.783	-0.7045	-0.6985	-0.4325	-0.454	0	0	0	0	0	8	8	8	8	8	1.736	2.364	2.412	4.54	4.368	-0.927666667	-0.8615	-0.872833333	-0.704166667	-0.698	154	176	271	187	243	80	69	64	38	41	0	0	0	0	0	-0.36	-0.94	-0.894583333
00077E7AE7	BLACKHOOD	box15	-8194.7	812.11	1608.37	13430.16	8113.98	25048.95	11159.62	25213.17	12025.92	43269.4	19930.54	796.26	box15	29	31	8	33	4.125	25	box15	0.05125	0.151494565	4.308	4.14	0.56	0.88	0.8	0.32	0.36	0.72	0.78	123	30.5	47.5	0.4	-0.28	-0.68	-0.32	-0.36	0.52173913	-0.21875	-0.761904762	-1	-1	0.307	-0.2045	-0.448	-0.2505	-0.241	0.96	0.6	0.12	0	0	2.336	5.944	7.516	8	8	4.792	4.308	3.932	5.996	6.072	0.40957971	-0.234416667	-0.629968254	-0.5235	-0.533666667	110	136	149	232	118	22	39	37	12	16	70	25	5	0	0	0.76	0.06	0.087581522
00077E7AEE	ALBINO	box3	6293.36	826.65	1358.25	35917.64	0	24791.83	7309.72	12513.68	8413.01	18016.38	12998.44	531.6	box3	19	2	18	37	2.055555556	19	box3	-0.507	-0.914965986	3.688	7.842	0.64	0.72	0.6	0.04	0	0.68	0.08	290.5	43.5	2	-0.6	-0.6	-0.48	0.04	0.04	-0.952380952	-0.87755102	-0.843137255	0.6	1	-0.495	-0.519	-0.2895	0.0385	0.0025	0.04	0.12	0.12	0.08	0.04	7.844	7.84	7.556	7.632	7.98	3.884	3.688	5.24	7.94	8	-0.682460317	-0.665517007	-0.537545752	0.226166667	0.3475	248	333	305	116	44	41	46	47	1	0	1	3	4	4	1	-0.64	-0.6	-0.673988662
00077E7AEF	ALBINO	box5	700.78	1258.65	1518.28	19250.79	12353.47	29857.69	17102.88	25362.58	17266.79	30147.22	11942.79	259.63	box5	17	13	4	20	5	16	box5	0.15275	0.12111293	4.808	4.434	0.36	0.64	0.8	0.52	0.72	0.5	0.74	109.5	29	33.5	0.32	0.16	-0.04	-0.12	-0.6	0.319148936	-0.076923077	-0.111111111	-0.5	-0.821428571	0.2145	0.091	0.063	-0.1865	-0.3475	0.68	0.8	0.76	0.4	0.12	4.788	4.08	4.868	6.892	7.48	6.504	4.808	5.372	5.4	4.7	0.284549645	0.058025641	-0.02937037	-0.268833333	-0.589642857	89	130	171	163	225	16	42	40	36	51	31	36	32	12	5	0.92	0.24	0.171287643
00077E7AF0	BROWNHOOD	box7	-4423.31	-61.06	648.41	21763.12	17244.4	38039.69	22997.41	26315.91	18354.08	40425.64	24342.25	709.47	box7	67	128	28	70	2.5	42	box7	0.7695	0.976470588	7.56	1.624	0	0.16	0.28	0.8	0.56	0.08	1	179	2	152	1	0.84	0.72	0.2	0.36	1	0.952941176	0.797101449	0.562130178	0.45631068	0.792	0.747	0.63	0.2525	0.147	1	1	1	1	0.92	1.664	1.584	1.944	1.712	4.088	8	7.56	6.984	3.732	5.264	0.930666667	0.846647059	0.715700483	0.338210059	0.32110356	156	202	130	371	488	0	4	14	37	28	138	166	124	132	75	0.64	0.92	0.888656863
00077E7AF1	BLACK	box14	-9055.22	-428.13	783.01	18205.57	6920.63	44067.25	17482.16	37091.97	12303.78	15032.39	10716.46	1211.14	box14	25	45	26	34	1.307692308	8	box14	0.4655	0.946658782	7.84	3.88	0.08	0.04	0.24	0.56	0.56	0.06	0.86	93	2.5	89.5	0.84	0.76	0.44	0.24	-0.2	0.915789474	0.97752809	0.733333333	0.185185185	-0.333333333	0.4725	0.4585	0.293	0.113	-0.2375	0.92	0.8	0.68	0.8	0.36	3.588	4.172	4.556	4.368	7.272	7.368	7.84	6.9	5.272	5.372	0.742763158	0.732009363	0.488777778	0.179395062	-0.256944444	89	97	128	224	201	4	1	10	33	26	91	88	65	48	13	1.04	0.8	0.737386261
00077E81BA	BROWNHOOD	box4	2540.95	626.55	1022.85	9565.03	6518.85	5478.21	7176.04	5884.48	7146.14	10478.01	3457.64	396.3																																																																											
00077E7AF2	BROWNHOOD	box6	1974.41	604.64	1053.22	105519.15	13225.56	48758.71	18042.85	182086.93	16825.55	148351.36	20027.16	448.58	box6	13	9	51	19	0.37254902	-32	box6	-0.5855	-0.835548173	2.612	7.576	0.84	0.92	0.88	0.04	0.2	0.88	0.14	174.5	84.5	7.5	-0.72	-0.76	-0.84	-0.04	-0.16	-0.813953488	-0.857142857	-0.966942149	-1	-0.111111111	-0.5355	-0.6355	-0.617	-0.0305	-0.0675	0.12	0.16	0.04	0	0.04	7.456	7.696	7.82	8	7.8	3.172	2.612	2.884	7.756	7.26	-0.689817829	-0.750880952	-0.807980716	-0.356833333	-0.11287037	171	178	307	65	161	78	91	119	1	5	8	7	2	0	4	-0.56	-0.74	-0.720349391
00077E7AF3	BLACKHOOD	box16	-9574	980.65	1631.33	3492.02	4320.01	6059.14	4939.79	5987.28	5176.05	6405.9	4976.43	650.68	box16	34	4	12	44	3.666666667	32	box16	-0.79975	-1	1.776	8	0.96	0.92	0.96	1	0.68	0.94	0	292.5	136.5	0	-0.96	-0.92	-0.96	-0.96	-0.64	-1	-1	-1	-0.973333333	-0.955555556	-0.8215	-0.778	-0.8565	-0.725	-0.3785	0	0	0	0.04	0.04	8	8	8	7.692	7.688	1.428	1.776	1.148	1.892	4.66	-0.927166667	-0.899333333	-0.938833333	-0.886111111	-0.658018519	285	300	279	514	246	142	131	94	74	44	0	0	0	1	1	-0.32	-0.94	-0.91325
00077E7AFF	ALBINO	box14	-6550.57	-174.71	476.54	13414.22	9103.34	65235.63	9579.99	52664.94	9251.46	20587.79	11032.46	651.25	box14	47	17	16	65	4.0625	49	box14	-0.40125	-0.577505407	2.7	6.854	0.64	0.88	0.92	0.76	0.64	0.76	0.34	314	59	15.5	-0.04	-0.8	-0.92	-0.68	-0.6	-0.260273973	-0.894736842	-1	-0.928571429	-0.95	-0.1795	-0.623	-0.763	-0.574	-0.412	0.6	0.08	0	0.08	0.04	6.024	7.684	8	7.78	7.892	4.588	2.7	1.896	3.188	4.596	-0.159924658	-0.772578947	-0.894333333	-0.72752381	-0.654	193	435	389	341	264	46	72	78	54	39	27	4	0	2	1	0.56	-0.42	-0.466251802
00077E7B00	ALBINO	box5	2328.58	993.76	1453.38	26577.97	5133.16	24606.88	5865.04	23261.11	6174.26	24197.41	10318.25	459.62	box5	29	20	13	40	3.076923077	27	box5	-0.4955	-0.833141542	4.704	7.656	0.92	0.6	0.56	0.16	0.08	0.76	0.12	370.5	56.5	5	-0.8	-0.48	-0.48	0	-0.08	-0.848101266	-0.818181818	-0.860465116	0	-1	-0.623	-0.368	-0.2445	-0.0645	-0.032	0.12	0.12	0.08	0.16	0	7.664	7.648	7.756	7.608	8	2.68	4.704	5.8	7.092	7.744	-0.757033755	-0.555393939	-0.528321705	-0.0215	-0.370666667	431	310	312	143	10	73	40	40	4	5	6	4	3	4	0	-0.72	-0.64	-0.656213847
00077E7B09	BLACK	box10	-7448.4	698.29	1320.78	22980.03	10659.39	18329.3	13311.46	34703.56	9758.39	23951.11	12296.63	622.49	box10	125	41	44	140	3.181818182	96	box10	0.34075	0.835866261	7.716	4.972	0.04	0.04	0.16	0.76	0.84	0.04	0.62	149.5	2.5	35	0.48	0.68	0.6	-0.56	-0.68	0.714285714	0.957446809	0.76	-0.636363636	-0.829787234	0.2345	0.447	0.2625	-0.4045	-0.5255	0.52	0.72	0.76	0.2	0.16	5.804	4.14	4.988	7.468	7.432	7.68	7.716	7.088	4.232	3.228	0.476261905	0.694815603	0.540833333	-0.533621212	-0.678429078	144	155	147	213	258	4	1	6	36	43	24	46	44	8	4	1.16	0.58	0.585538754
00077E7B0A	BLACKHOOD	box4	-4157.7	-47.55	379.11	7569.5	9688.11	15638.14	6762.91	8011	4096.12	8832.22	11195.16	426.66	box4	12	6	12	13	1.083333333	1	box4	-0.6895	-1	2.652	8	0.88	0.84	0.68	0.04	0.12	0.86	0	286	124	0	-0.88	-0.84	-0.68	-0.04	-0.08	-1	-1	-1	-1	-0.666666667	-0.7105	-0.6685	-0.467	0	-0.048	0	0	0	0	0.04	8	8	8	8	7.832	2.316	2.652	4.264	8	7.448	-0.8635	-0.836166667	-0.715666667	-0.346666667	-0.264888889	245	327	280	45	29	145	103	55	1	5	0	0	0	0	1	-0.8	-0.86	-0.849833333
00077E7B0D	ALBINO	box3	-6902.34	-80.85	213.91	40263.97	9869.49	19397.66	13574.17	14407.96	12405.59	68696.55	9684.95	294.76	box3	35	0	10	46	4.6	36	box3	-0.496	-0.983870968	3.808	7.786	0.84	0.92	0.92	0.84	0.48	0.88	0.02	64	32.5	0.5	-0.84	-0.88	-0.92	-0.84	-0.4	-1	-0.967741935	-1	-1	-0.806451613	-0.4815	-0.5105	-0.7455	-0.657	-0.2385	0	0.04	0	0	0.08	7.68	7.892	8	8	7.696	3.828	3.808	2.036	2.744	5.788	-0.773833333	-0.786080645	-0.8885	-0.832333333	-0.481650538	30	98	383	429	270	4	61	82	76	28	0	1	0	0	3	-0.44	-0.86	-0.779956989
00077E7B13	BLACK	box2	1572.43	919.62	1390.69	64147.84	9820.16	11591.35	16265.05	50269	14784.37	38766.96	12970.17	471.07	box2	28	49	10	36	3.6	26	box2	0.1815	0.175699301	3.964	3.552	0.44	0.68	0.8	0.68	0.6	0.56	0.92	133	40.5	55.5	0.48	0.24	-0.48	-0.32	-0.36	0.409090909	-0.057692308	-0.470588235	-0.25	-0.396226415	0.3965	-0.0335	-0.4055	-0.336	-0.1865	0.92	0.92	0.32	0.36	0.24	2.872	4.232	6.98	6.8	6.804	6.044	3.964	3.736	4.112	5.312	0.428530303	0.049602564	-0.452029412	-0.302	-0.314242138	122	144	226	160	144	26	55	50	35	37	62	49	18	21	16	0.84	0.36	0.239066434
00077E7B18	BROWNHOOD	box12	-2071.7	657.09	1476.81	13636.92	5765.19	7374.2	7190.01	8757.06	13550	41251.98	10624.88	819.72	box12	36	7	27	43	1.592592593	16	box12	0.3225	0.929480382	7.46	5.03	0.04	0.08	0.32	0.76	0.52	0.06	0.78	132.5	1.5	42	0.76	0.68	0.04	-0.68	-0.48	0.956521739	0.902439024	0.130434783	-0.936507937	-0.942857143	0.3425	0.3025	-0.086	-0.4565	-0.386	0.8	0.76	0.36	0.08	0.04	5.02	5.04	7.152	7.804	7.984	7.76	7.46	6.464	4.152	4.896	0.68634058	0.628313008	0.028144928	-0.691002646	-0.602952381	140	125	198	249	200	1	2	10	61	34	45	39	13	2	1	1.24	0.72	0.657326794
00077E7B19	BLACKHOOD	box15	-4204.47	691.49	1258.42	75276.91	26223.21	47818.52	20969.21	44824.29	22702.21	34491.5	19435.9	566.93	box15	36	10	39	70	1.794871795	31	box15	-0.84625	-0.958677686	0.692	7.88	0.96	1	0.96	0.72	0.44	0.98	0.02	303.5	122	2.5	-0.92	-1	-0.88	-0.56	-0.2	-0.917355372	-1	-0.946428571	-0.661016949	-0.3125	-0.779	-0.9135	-0.8225	-0.3225	-0.2435	0.04	0	0.08	0.16	0.24	7.76	8	7.896	7.472	7.24	1.528	0.692	1.316	4.892	5.292	-0.872118457	-0.971166667	-0.88297619	-0.51450565	-0.252	281	326	344	392	229	116	128	109	49	21	5	0	3	10	11	-0.72	-0.96	-0.921642562
00077E7B22	ALBINO	box11	1564.08	325.03	865.3	39905.9	13126.61	70750.33	27239.31	47468.41	10380.21	38147.18	25624.58	540.27	box11	76	24	22	86	3.909090909	64	box11	0.11075	0.9	8	6.954	0.04	0	0.08	0.6	0.4	0.02	0.3	279.5	0.5	9	0.28	0.28	0.44	-0.44	-0.28	0.8	1	0.818181818	-0.5625	-0.571428571	0.0975	0.124	0.1325	-0.2845	-0.141	0.32	0.28	0.52	0.16	0.12	6.9	7.008	6.592	7.328	7.224	7.68	8	7.652	5.052	6.096	0.3925	0.468	0.463560606	-0.429	-0.330809524	395	164	187	250	352	1	0	2	25	22	9	9	20	7	6	0.56	0.28	0.43025
00077E7B24	BLACKHOOD	box16	-2553.79	524.29	1130.09	32099.78	15096.33	17936.11	21530.12	25445.69	18656.89	22981.13	19579.65	605.8	box16	14	0	3	19	6.333333333	16	box16	-0.73825	-1	2.524	8	0.92	0.92	0.56	0.12	0.52	0.92	0	225.5	98	0	-0.92	-0.92	-0.52	-0.12	-0.52	-1	-1	-0.84	-1	-1	-0.792	-0.6845	-0.3525	-0.0795	-0.356	0	0	0.04	0	0	8	8	7.684	8	8	1.664	2.524	4.864	7.364	5.152	-0.904	-0.868166667	-0.570833333	-0.399833333	-0.625333333	231	220	243	145	195	113	83	23	4	28	0	0	2	0	0	-0.4	-0.92	-0.886083333
00077E7B26	BLACK	box2	-569.53	206.87	927.32	25466.1	5129.5	27934.91	7920.67	22919.85	11571.68	18984.91	6468.02	720.45	box2	52	3	24	64	2.666666667	40	box2	-0.593	-1	2.392	8	0.64	0.96	0.88	0.96	0.8	0.8	0	270.5	42.5	0	-0.64	-0.96	-0.88	-0.96	-0.76	-1	-1	-1	-1	-0.957446809	-0.485	-0.701	-0.651	-0.7815	-0.5315	0	0	0	0	0.04	8	8	8	8	7.928	4.12	2.392	2.792	1.748	3.676	-0.708333333	-0.887	-0.843666667	-0.913833333	-0.749648936	228	313	55	390	448	34	51	15	79	46	0	0	0	0	1	0.12	-0.8	-0.797666667
00077E7B30	BLACKHOOD	box4	-5457.4	218.42	1061.86	27728.24	16424.36	40823.92	14519.23	30359.53	16268.94	23816.33	19481.74	843.44	box4	36	37	37	49	1.324324324	12	box4	0.4985	0.825808625	7.372	3.332	0.16	0.2	0.32	0.72	0.72	0.18	0.9	146.5	9.5	99.5	0.72	0.72	0.6	-0.44	-0.64	0.821428571	0.830188679	0.697478992	-0.582089552	-0.904761905	0.4795	0.5175	0.3425	-0.1955	-0.4895	0.88	0.92	0.92	0.28	0.08	3.432	3.232	3.684	6.644	7.652	7.268	7.372	6.424	5.08	3.736	0.673642857	0.68922956	0.546659664	-0.405863184	-0.678087302	130	163	160	332	261	10	9	18	53	60	102	97	101	14	3	1.36	0.72	0.681436208
00077E7B3F	BROWN	box5	5247.69	85.19	875.81	39986.85	13736.99	23382.62	15798.6	14609.73	13015.22	8758.59	10578.62	790.62	box5	5	0	6	7	1.166666667	1	box5	-0.39125	-0.959183673	4.256	7.968	0.52	0.72	0.4	0.36	0.52	0.62	0.02	128.5	39	1	-0.52	-0.68	-0.32	-0.32	-0.48	-1	-0.918367347	-0.545454545	-0.882352941	-0.833333333	-0.3225	-0.46	-0.261	-0.2645	-0.256	0	0.04	0.08	0.04	0.04	8	7.936	7.628	7.996	7.804	5.42	4.256	5.54	5.88	5.756	-0.614166667	-0.686122449	-0.375484848	-0.48895098	-0.523111111	140	117	105	143	128	31	47	17	16	22	0	2	5	1	2	-0.04	-0.6	-0.650144558
00077E7B42	BROWN	box13	-254.33	61.63	897.93	23386.96	14119.24	10640.22	15481.07	9462.23	18021.94	17792.64	18705.27	836.3	box13	11	1	10	17	1.7	7	box13	-0.15475	-0.923076923	6.632	7.84	0.36	0.2	0.24	0.32	0.28	0.28	0.02	91.5	16	0.5	-0.36	-0.16	-0.24	-0.28	-0.24	-1	-0.846153846	-1	-0.888888889	-0.857142857	-0.1785	-0.131	-0.137	-0.1715	-0.2365	0	0.04	0	0.04	0.04	8	7.68	8	7.964	7.948	6.572	6.632	6.904	6.592	6.056	-0.512833333	-0.379051282	-0.459	-0.446796296	-0.444547619	111	72	103	85	75	20	12	10	17	13	0	1	0	1	1	-0.12	-0.26	-0.445942308
00077E7B48	BLACKHOOD	box4	-9956.96	451.48	1297.56	34635.36	9327.81	35704.33	15392.11	43069.52	13687.58	55330.63	19529.25	846.08	box4	19	1	26	20	0.769230769	-6	box4	-0.5565	-1	3.92	8	0.88	0.76	0.6	0.28	0.2	0.82	0	227.5	57.5	0	-0.88	-0.76	-0.6	-0.24	-0.16	-1	-1	-1	-0.882352941	-0.714285714	-0.603	-0.51	-0.392	-0.0905	-0.1035	0	0	0	0.04	0.04	8	8	8	7.856	7.948	3.176	3.92	4.864	7.132	7.12	-0.827666667	-0.756666667	-0.664	-0.404284314	-0.325928571	195	260	156	149	59	54	61	41	16	6	0	0	0	1	1	-0.72	-0.82	-0.792166667
00077E7B53	BROWN	box2	-6020.71	645.84	739.97	38952.99	15805.41	51409.79	19803.07	92962.96	17913.27	61034.36	19478.8	94.13	box2	51	74	28	58	2.071428571	30	box2	0.74525	0.899061522	7.62	1.684	0.08	0.08	0.36	0.8	0.76	0.08	0.98	334.5	6	115	0.88	0.92	0.6	0.16	-0.44	0.912408759	0.885714286	0.823529412	0.344827586	-0.620689655	0.765	0.7255	0.5545	0.1505	-0.4625	0.96	1	0.96	0.96	0.32	1.552	1.816	2.012	2.792	6.972	7.672	7.62	6.448	3.996	3.272	0.852469586	0.843738095	0.659343137	0.218442529	-0.507729885	415	254	274	336	308	6	6	12	38	47	131	99	124	78	11	1.32	0.9	0.848103841
00077E7B54	BLACKHOOD	box2	-7928.84	-224.53	565.46	3432.82	6501.14	18138.52	2138.53	6092.94	27269.11	8914.83	13856.78	789.99	box3	29	18	27	46	1.703703704	19	box3	-0.28725	-0.739477182	5.9	7.526	0.64	0.4	0.4	0.28	0.28	0.52	0.16	209	43	6	-0.44	-0.28	-0.2	-0.2	0.28	-0.803278689	-0.675675676	-0.529411765	-0.571428571	0.464285714	-0.366	-0.2085	-0.1205	-0.1	0.204	0.2	0.12	0.2	0.08	0.56	7.484	7.568	7.244	7.732	5.448	4.556	5.9	6.28	6.932	7.08	-0.53642623	-0.388058559	-0.283303922	-0.29047619	0.316095238	230	188	258	170	143	55	31	26	11	15	6	6	8	3	41	-0.72	-0.36	-0.462242394
00077E7B59	BROWNHOOD	box15	-7258.26	-224.79	548.71	8807.85	6813.15	12454.16	10094.25	89623.16	10718.23	64725.04	13896.11	773.5	box15	26	0	7	45	6.428571429	38	box15	-0.709	-1	2.408	8	0.92	0.88	0.76	0.72	0.4	0.9	0	226	37.5	0	-0.92	-0.88	-0.72	-0.72	-0.36	-1	-1	-0.962962963	-1	-0.866666667	-0.719	-0.699	-0.399	-0.501	-0.188	0	0	0.04	0	0.04	8	8	7.892	8	7.876	2.248	2.408	4.7	3.992	6.372	-0.879666667	-0.859666667	-0.693987654	-0.740333333	-0.471555556	228	224	338	338	213	28	47	53	52	14	0	0	1	0	1	-0.56	-0.9	-0.869666667
00077E7B63	BROWN	box13	-1010.22	89.49	371.44	20932.71	5979.37	16343.03	10144.49	20593.76	7149.91	31446.43	12865.7	281.95	box13	45	35	28	61	2.178571429	33	box13	-0.2405	-0.532867133	5.872	7.212	0.68	0.64	0.68	0.56	0.24	0.66	0.24	181	46	14	-0.32	-0.52	-0.48	-0.48	0	-0.538461538	-0.527272727	-0.842105263	-0.709677419	0.172413793	-0.2775	-0.2035	-0.4895	-0.3395	-0.0505	0.36	0.12	0.2	0.08	0.24	6.924	7.5	7.664	7.628	7.52	4.704	5.872	3.748	4.912	7.116	-0.378653846	-0.416924242	-0.603868421	-0.509725806	0.040637931	202	160	205	326	141	50	42	70	53	12	15	13	6	9	17	-0.32	-0.42	-0.397789044
00077E7B68	BLACKHOOD	box16	1939.4	-393.02	397.8	16767.74	9783.17	28544.43	15173.12	30133.56	11246.41	26078.7	11002.33	790.82	box16	7	0	5	10	2	5	box16	-0.52575	-1	4.472	8	0.88	0.8	0.52	0.68	0.4	0.84	0	146.5	69	0	-0.88	-0.8	-0.52	-0.68	-0.36	-1	-1	-1	-1	-0.931034483	-0.6105	-0.441	-0.261	-0.406	-0.175	0	0	0	0	0.04	8	8	8	8	7.912	3.116	4.472	5.912	4.752	6.512	-0.830166667	-0.747	-0.593666667	-0.695333333	-0.488678161	148	145	208	159	210	78	60	35	49	28	0	0	0	0	1	-0.52	-0.84	-0.788583333
00077E7B6A	BROWNHOOD	box12	1721.75	314.62	1152.32	39922.84	10154.8	46364.48	22758.11	55292.9	12306.39	11194.03	14012.12	837.7	box12	30	26	18	37	2.055555556	19	box12	0.03575	0.289001381	6.304	6.04	0.28	0.32	0.52	0.4	0.28	0.3	0.64	131	16.5	30.5	0.36	0.32	-0.16	-0.32	-0.12	0.358490566	0.219512195	-0.444444444	-0.703703704	-0.2	0.0735	-0.002	-0.1635	-0.1865	0.033	0.64	0.64	0.36	0.08	0.16	5.76	6.32	7.104	7.644	7.16	6.348	6.304	5.796	6.152	7.424	0.263996855	0.179170732	-0.255981481	-0.403401235	-0.095666667	109	153	193	213	239	17	16	26	23	12	36	25	10	4	8	0.48	0.34	0.221583794
00077E7B7B	BROWNHOOD	box4	1125.1	732.66	1631.46	4413.04	7973.71	4060.25	6907.11	6550.72	2542.85	11047.98	5335.72	898.8	box4	3	0	8	4	0.5	-4	box4	-0.3935	-1	5.412	8	0.64	0.6	0.44	0.28	0.16	0.62	0	163	65	0	-0.64	-0.6	-0.44	-0.28	-0.12	-1	-1	-1	-1	-0.5	-0.4635	-0.3235	-0.2485	-0.188	-0.0515	0	0	0	0	0.04	8	8	8	8	7.776	4.292	5.412	6.012	6.496	7.364	-0.701166667	-0.641166667	-0.562833333	-0.489333333	-0.223833333	170	156	125	102	100	70	60	31	14	6	0	0	0	0	2	-0.52	-0.62	-0.671166667
00077E7B7D	BROWN	box5	-2243.99	8.4	809.37	5552.61	11574.32	10267.81	11470.48	9240.45	13519.09	25313.69	11199.66	800.97	box5	33	30	16	45	2.8125	29	box5	-0.54425	-0.963890696	3.476	7.96	0.72	0.84	0.76	0.64	0.56	0.78	0.04	196.5	54.5	1	-0.68	-0.8	-0.76	-0.64	-0.56	-0.965517241	-0.962264151	-1	-1	-1	-0.5305	-0.558	-0.557	-0.4115	-0.302	0.04	0.04	0	0	0	7.98	7.94	8	8	8	3.736	3.476	3.544	4.708	5.584	-0.72533908	-0.773421384	-0.772333333	-0.683833333	-0.620666667	135	258	180	178	160	57	52	67	41	27	1	1	0	0	0	-0.12	-0.74	-0.749380232
00077E7B84	BROWNHOOD	box4	-5072.32	224.06	541.54	6957.76	3374.74	4188.71	6533.35	9070.44	4855.35	5620.9	5411.69	317.48	box4	36	32	12	47	3.916666667	35	box4	0.4155	0.921052632	6.532	3.79	0.08	0.24	0.36	0.76	0.64	0.16	0.86	160.5	4	91	0.72	0.68	0.24	0.12	-0.16	0.947368421	0.894736842	0.727272727	0.215686275	0.027027027	0.426	0.405	0.202	0.158	-0.237	0.8	0.92	0.6	0.88	0.48	4.288	3.292	4.596	3.16	6.288	7.696	6.532	6.212	4.424	4.392	0.697789474	0.659912281	0.389757576	0.164562092	-0.123324324	88	233	121	210	260	2	6	12	40	36	74	108	76	62	38	0.88	0.7	0.678850877
00077E7B8B	BROWN	box1	-2924.81	621.89	1075.34	7572.68	13117.83	8784.45	12034.28	9149.05	8247.23	11089.85	12723.53	453.45	box1	5	2	22	7	0.318181818	-15	box1	-0.14075	-0.733333333	7.192	7.89	0.32	0.12	0.48	0.48	0.52	0.22	0.04	83	16	1.5	-0.28	-0.08	-0.4	-0.44	-0.44	-0.866666667	-0.6	-0.789473684	-0.826086957	-0.846153846	-0.195	-0.0865	-0.251	-0.267	-0.322	0.04	0.04	0.08	0.04	0.08	7.896	7.884	7.464	7.864	7.744	6.336	7.192	5.456	5.728	5.168	-0.447222222	-0.2555	-0.480157895	-0.511028986	-0.536051282	61	105	113	94	88	28	4	17	21	24	2	1	2	2	2	0.16	-0.18	-0.351361111
00077E7B8C	BROWNHOOD	box5	-9113.99	214.18	1026.86	11799.47	13277.88	17696.31	16208.7	17959.13	13376.17	16832.2	17200.56	812.68	box5	8	0	26	16	0.615384615	-10	box5	0.02275	0.12202381	5.856	6.714	0.04	0.44	0.16	0.2	0.08	0.24	0.38	155.5	12.5	25.5	0.56	-0.28	-0.16	-0.16	0.04	0.958333333	-0.714285714	-1	-0.428571429	0.076923077	0.299	-0.2535	-0.0575	-0.1005	0.0345	0.6	0.16	0	0.04	0.12	5.544	7.884	8	7.82	7.292	7.936	5.856	7.54	7.016	7.568	0.605777778	-0.415928571	-0.405833333	-0.229690476	0.050474359	140	171	187	157	74	1	24	8	10	6	47	4	0	4	7	0.52	0.14	0.094924603
00077E7B91	ALBINO	box6	3896.02	630.79	790.62	15820.18	16655.06	68493.04	21011.9	59845.72	12715.9	49273.46	12462.58	159.83	box6	33	1	6	48	8	42	box6	-0.718	-1	2.548	8	1	1	0.92	0.96	0.84	1	0	183.5	86	0	-1	-1	-0.88	-0.92	-0.84	-1	-1	-0.977272727	-0.961904762	-1	-0.7545	-0.6815	-0.796	-0.812	-0.689	0	0	0.04	0.04	0	8	8	7.82	7.684	8	1.964	2.548	1.452	1.188	2.488	-0.918166667	-0.893833333	-0.884424242	-0.897968254	-0.843	221	146	200	283	395	87	85	87	103	69	0	0	1	2	0	-0.16	-1	-0.906
00077E7B94	ALBINO	box9	-1156.29	271.5	669.6	19120.54	8431.54	59604.31	11544.43	21734.35	10707.43	8950.21	11255.57	398.1	box9	12	2	16	15	0.9375	-1	box9	-0.13925	-0.235294118	5.088	5.974	0.64	0.72	0.56	0.6	0.8	0.68	0.56	88.5	31.5	19.5	-0.12	-0.12	-0.04	-0.16	-0.44	-0.333333333	-0.137254902	-0.106382979	-0.469387755	-0.606557377	-0.1575	-0.121	-0.127	-0.3265	-0.51	0.52	0.6	0.52	0.44	0.36	5.892	6.056	6.356	7.088	7.152	4.632	5.088	5.34	4.476	3.072	-0.203611111	-0.126084967	-0.09112766	-0.318629252	-0.518852459	72	105	96	211	322	34	29	26	36	49	17	22	21	13	12	0.32	-0.12	-0.164848039
00077E7B96	BLACKHOOD	box7	-8520.49	305.63	1184.01	42707.04	12344.21	18848.96	14409.83	38322.91	11734.17	51153.34	19552.56	878.38	box7	38	70	36	68	1.888888889	32	box7	-0.15	-0.268105363	3.932	5.11	0.84	0.72	0.8	0.68	0.88	0.78	0.62	230	79.5	46.5	-0.12	-0.2	-0.48	-0.56	-0.76	-0.197080292	-0.339130435	-0.617977528	-0.793103448	-0.897435897	-0.065	-0.235	-0.47	-0.367	-0.496	0.72	0.52	0.32	0.12	0.12	4.408	5.812	6.868	7.616	7.38	3.888	3.932	3.108	4.68	3.412	-0.127360097	-0.258043478	-0.522659176	-0.573367816	-0.717811966	265	195	419	292	361	82	77	72	52	74	55	38	17	6	4	0.64	-0.16	-0.192701788
00077E7B97	BROWNHOOD	box11	-4857.67	-52.72	618.28	59596.77	17226.57	25845.58	13329.58	36201.97	23291.44	81464.75	8875.08	671	box11	54	12	18	101	5.611111111	83	box11	-0.23475	-0.724941725	5.104	7.844	0.4	0.48	1	0.84	0.52	0.44	0.04	203.5	20	3	-0.36	-0.44	-1	-0.76	-0.28	-0.692307692	-0.757575758	-1	-0.818181818	-0.377777778	-0.1305	-0.339	-0.7295	-0.529	-0.3045	0.04	0.04	0	0.08	0.24	7.872	7.816	8	7.628	7.084	6.828	5.104	2.164	3.396	4.648	-0.394269231	-0.512191919	-0.909833333	-0.702393939	-0.320759259	193	214	426	487	286	11	29	96	60	31	2	4	0	6	14	-0.08	-0.4	-0.453230575
00077E7B9C	BROWNHOOD	box3	-4231.42	669.67	1174.94	23398.81	6975.4	16526.75	12722.59	3760.95	8528.39	45525.61	9882.02	505.27	box3	27	10	10	40	4	30	box3	-0.25875	-0.44017094	5.6	6.94	0.72	0.6	0.64	0.32	0.2	0.66	0.32	144.5	35.5	13	-0.52	-0.16	-0.44	-0.32	-0.12	-0.769230769	-0.111111111	-0.6	-1	-0.555555556	-0.415	-0.1025	-0.3775	-0.2105	-0.036	0.2	0.44	0.2	0	0.08	7.46	6.42	7.64	8	7.748	4.14	5.6	4.62	6.316	7.46	-0.568076923	-0.124537037	-0.4725	-0.510166667	-0.237185185	109	180	248	69	61	46	25	32	14	7	6	20	8	0	2	-0.4	-0.34	-0.34630698
00077E7BA2	BLACKHOOD	box15	6.97	1132.97	1333.7	37741.14	11968.4	35281.52	15483.86	26125.93	8727.07	15704.49	9937.16	200.73	box15	33	2	12	40	3.333333333	28	box15	-0.31125	-0.923076923	4.992	7.944	0.32	0.52	0.76	0.6	0.44	0.42	0.04	398.5	23.5	1.5	-0.32	-0.44	-0.76	-0.6	-0.44	-1	-0.846153846	-1	-1	-1	-0.2605	-0.362	-0.4275	-0.3175	-0.1865	0	0.08	0	0	0	8	7.888	8	8	8	5.916	4.992	4.58	5.46	6.508	-0.526833333	-0.549384615	-0.729166667	-0.639166667	-0.542166667	319	478	474	264	247	11	36	64	32	26	0	3	0	0	0	0.12	-0.38	-0.538108974
00077E7BA8	BROWN	box4	-651.93	565.53	1116.75	6961.77	9638.56	7664.11	8238.73	7850.13	8938.9	5723.27	7034.2	551.22	box4	9	0	10	12	1.2	2	box4	-0.1365	-0.928571429	7.124	7.954	0.32	0.28	0.12	0	0.04	0.3	0.02	156.5	11.5	0.5	-0.32	-0.24	-0.12	0	-0.04	-1	-0.857142857	-1		-1	-0.175	-0.098	-0.086	0	-0.001	0	0.04	0	0	0	8	7.908	8	8	8	6.6	7.124	7.312	8	7.992	-0.498333333	-0.398380952	-0.402		-0.347	154	159	23	18	21	10	13	4	0	1	0	1	0	0	0	-0.28	-0.28	-0.448357143
00077E7BAE	ALBINO	box15	-6329.31	-170.37	312.88	100970.36	17184.59	3581.75	12048.82	14521.85	17051.36	18722.79	8557.5	483.25	box15	35	9	38	44	1.157894737	6	box15	-0.5425	-0.812714777	2.544	7.186	0.84	0.8	0.72	0.44	0.28	0.82	0.22	346.5	80	7.5	-0.48	-0.72	-0.6	-0.32	-0.04	-0.666666667	-0.958762887	-0.846153846	-0.591836735	0.125	-0.43	-0.655	-0.3905	-0.2195	-0.0735	0.36	0.08	0.12	0.12	0.24	6.588	7.784	7.436	7.376	7.232	3.148	2.544	4.312	5.62	6.644	-0.525555556	-0.777920962	-0.612217949	-0.377112245	0.003833333	283	410	198	214	144	65	95	48	39	7	13	2	4	10	9	-0.44	-0.6	-0.651738259
00077E7BAF	BROWN	box5	-2462.09	39.6	307.87	14228.74	5317.73	12444.31	7446.5	22361.86	8082	24336.67	9374.47	268.27	box5	2	0	2	4	2	2	box5	-0.57275	-1	3.172	8	0.8	0.8	0.72	0.72	0.68	0.8	0	135	59.5	0	-0.8	-0.8	-0.72	-0.72	-0.68	-1	-1	-1	-1	-1	-0.542	-0.6035	-0.5935	-0.6205	-0.523	0	0	0	0	0	8	8	8	8	8	3.664	3.172	3.252	3.036	3.816	-0.780666667	-0.801166667	-0.771166667	-0.780166667	-0.734333333	142	128	207	346	281	61	58	59	50	51	0	0	0	0	0	-0.12	-0.8	-0.790916667
00077E7BB0	BLACKHOOD	box15	-2711.62	270.17	758.02	27614.63	8552.08	24982.37	8885.98	10642.87	7687.25	11500.98	6540.18	487.85	box15	56	12	42	96	2.285714286	54	box15	-0.7375	-0.9875	2.656	7.956	0.96	0.92	0.96	0.84	0.76	0.94	0.02	327	75	0.5	-0.92	-0.92	-0.96	-0.84	-0.72	-0.975	-1	-1	-1	-0.962264151	-0.807	-0.668	-0.7395	-0.654	-0.4355	0.04	0	0	0	0.04	7.912	8	8	8	7.684	1.456	2.656	2.084	2.768	4.2	-0.900666667	-0.862666667	-0.899833333	-0.831333333	-0.705921384	320	334	340	404	376	79	71	58	60	52	1	0	0	0	1	-0.2	-0.92	-0.881666667
00077E7BB4	BROWNHOOD	box15	5517.21	1326.39	1379.74	16513.71	15363	20445.47	18375	37370.19	13954.46	38061.29	13530.23	53.35	box15	44	68	21	50	2.380952381	29	box15	-0.20675	-0.259125104	4.724	6.29	0.76	0.68	0.48	0.28	0.12	0.72	0.44	115.5	33.5	33.5	0.04	-0.6	-0.4	-0.28	-0.12	0.319587629	-0.837837838	-0.878787879	-1	-1	-0.0335	-0.38	-0.296	-0.1645	-0.0995	0.8	0.08	0.08	0	0	4.816	7.764	7.884	8	8	4.548	4.724	5.516	6.684	7.204	0.108695876	-0.605945946	-0.524929293	-0.4815	-0.4065	134	97	158	163	52	33	34	31	17	8	64	3	2	0	0	0.16	-0.28	-0.248625035
00077E7BBA	BLACKHOOD	box8	469.57	-127.56	368.47	39536.03	15455.71	22490.68	12737.41	39123.84	20983.58	42105.21	27487.37	496.03	box8	15	18	23	21	0.913043478	-2	box8	0.07075	-0.060296846	4.888	4.828	0.36	0.72	0.52	0.6	0.64	0.54	0.64	128.5	36	35	0.12	0.08	0.32	-0.2	-0.4	-0.181818182	0.06122449	0.4375	-0.285714286	-0.322033898	0.002	0.1395	0.1615	-0.2315	-0.334	0.48	0.8	0.84	0.4	0.24	5.884	3.772	4.232	6.856	7.176	5.9	4.888	5.524	5.004	4.504	-0.019939394	0.09357483	0.306333333	-0.239071429	-0.352011299	122	135	160	206	330	26	46	36	36	39	18	52	92	20	20	0.52	0.1	0.036817718
